ax,ay,az,gx,gy,gz
-10.067,-3.155,2.328,-1.475,1.07,-3.03
-7.679,-3.806,1.78,-1.504,1.147,-3.197
-5.597,-4.482,1.347,-1.483,0.811,-2.948
-4.76,-5.046,0.597,-1.449,0.309,-2.456
-4.4,-5.241,-0.259,-1.371,-0.144,-1.855
-4.478,-5.065,-1.406,-1.195,-0.359,-1.229
-5.036,-4.678,-2.132,-0.992,-0.47,-0.706
-5.905,-4.58,-2.872,-0.777,-0.547,-0.396
-6.283,-4.364,-3.589,-0.58,-0.434,-0.176
-6.499,-4.505,-3.937,-0.398,-0.257,-0.03
-6.947,-4.91,-3.892,-0.346,-0.365,-0.061
-7.421,-5.364,-4.001,-0.341,-0.318,-0.177
-7.02,-5.437,-3.883,-0.316,-0.045,-0.202
-6.398,-5.706,-3.553,-0.257,0.068,-0.16
-6.338,-6.128,-3.313,-0.193,-0.044,-0.124
-6.246,-6.581,-3.189,-0.108,0.071,-0.172
-5.075,-6.696,-3.024,0.03,0.265,-0.192
-3.487,-6.488,-2.612,0.179,0.333,-0.081
-2.471,-5.642,-1.984,0.357,0.152,0.18
-1.34,-3.929,-0.979,0.55,0.05,0.795
-0.853,-1.565,-0.3,0.786,-0.322,1.905
-2.191,0.803,0.254,1.142,-0.916,3.236
-6.099,1.69,1.485,1.609,-1.596,4.515
-11.887,0.344,4.955,1.805,-2.015,5.297
-18.296,-6.422,9.935,0.72,-2.099,4.756
-26.23,-9.545,17.947,-1.27,-1.188,2.641
-34.847,-6.912,28.091,-3.429,-0.463,-0.334
-35.506,1.964,31.173,-5.49,0.977,-3.419
-29.282,9.524,27.178,-6.091,1.397,-5.386
-22.933,18.714,21.976,-4.735,1.943,-5.171
-16.117,19.808,15.248,-2.312,0.943,-3.236
-8.482,14.308,5.965,-0.072,0.64,-0.98
-6.093,3.551,2.461,1.99,-0.023,1.168
-8.374,-4.278,3.869,2.764,0.539,2.456
-8.955,-8.944,4.588,2.691,0.735,2.554
-8.038,-8.694,3.871,2.435,1.538,2.365
-6.23,-7.522,3.908,2.384,1.608,2.679
-6.11,-4.77,3.663,2.204,1.269,3.271
-8.11,-2.05,3.304,2.268,0.528,3.855
-12.035,-4.361,4.869,2.505,0.164,4.23
-16.155,-12.999,9.666,1.582,-0.403,3.3
-23.984,-15.519,17.182,-0.608,-0.246,0.818
-32.154,-13.681,26.029,-2.756,-0.117,-1.954
-32.706,-6.986,29.197,-4.668,0.431,-4.36
-29.652,3.171,26.415,-5.669,0.215,-5.654
-25.208,15.313,20.647,-4.792,0.342,-5.041
-19.026,18.027,13.236,-2.308,-0.109,-2.679
-11.936,12.991,5.274,0.032,-0.127,-0.506
-9.175,3.172,2.735,1.954,-0.005,1.22
-8.424,-4.823,3.748,2.887,0.465,2.036
-8.057,-8.778,4.594,3.0,1.002,2.222
-6.788,-10.075,4.812,2.773,1.416,2.278
-5.6,-9.187,4.933,2.574,1.435,2.539
-4.704,-6.657,4.065,2.361,1.072,3.087
-5.488,-3.743,3.876,2.367,0.58,3.871
-9.769,-5.236,5.581,2.426,-0.279,4.461
-19.069,-12.791,10.028,1.51,-0.956,3.464
-27.166,-14.056,18.265,-0.632,-0.061,1.031
-38.752,-6.247,29.41,-2.788,-0.219,-1.567
-40.062,-0.903,32.327,-4.686,-0.082,-4.089
-36.936,7.403,29.709,-5.498,0.12,-5.685
-27.803,19.455,23.866,-4.677,0.299,-5.265
-20.309,22.1,15.089,-2.127,-0.752,-2.921
-10.437,11.798,5.108,0.267,-0.606,-0.636
-9.428,3.195,2.976,2.178,-0.388,1.182
-8.966,-4.136,3.776,2.965,-0.108,2.019
-7.922,-8.59,4.287,3.136,0.468,2.448
-7.932,-9.25,4.778,2.726,0.912,2.661
-6.678,-8.353,4.974,2.576,1.105,2.844
-6.446,-5.207,4.879,2.609,0.844,3.396
-8.465,-4.236,5.869,2.704,0.535,3.922
-12.552,-5.744,7.857,2.525,0.069,3.999
-16.015,-12.641,10.916,1.707,-0.57,3.074
-23.194,-15.401,17.449,-0.537,-0.332,0.849
-30.663,-13.544,27.302,-2.918,-0.003,-1.834
-31.653,-5.467,30.527,-5.14,0.701,-3.972
-27.99,4.223,28.158,-5.878,0.626,-5.15
-24.839,15.082,23.271,-4.968,0.586,-4.934
-18.691,19.193,15.742,-2.361,0.299,-2.956
-11.482,13.951,6.745,0.071,0.241,-0.84
-9.135,4.674,4.024,2.261,0.02,0.747
-9.121,-3.901,4.798,3.129,0.429,1.545
-7.846,-8.977,5.865,3.205,1.356,1.881
-7.452,-11.141,6.801,2.815,1.705,2.122
-7.357,-10.522,6.335,2.431,1.767,2.28
-6.25,-8.751,4.891,2.063,1.469,2.537
-5.787,-5.975,4.127,2.011,1.186,3.118
-7.532,-5.641,4.469,2.044,0.32,3.794
-15.563,-12.053,7.247,1.525,0.003,3.236
-22.249,-14.998,12.227,-0.159,-0.007,0.962
-32.122,-11.418,20.588,-2.119,-0.057,-1.345
-37.419,-6.57,25.083,-3.878,0.239,-3.588
-35.278,1.505,23.924,-4.682,0.19,-5.36
-27.684,13.842,18.532,-4.178,-0.299,-5.384
-21.765,18.992,12.979,-1.828,-0.404,-2.93
-14.136,13.349,5.981,0.536,-0.426,-0.827
-10.276,5.494,3.123,2.447,-0.323,0.895
-10.299,-3.967,4.755,3.174,0.231,2.003
-9.06,-10.142,5.74,3.086,0.936,2.379
-9.003,-12.383,5.874,2.507,1.205,2.288
-7.654,-11.968,5.943,2.196,1.621,2.281
-6.129,-9.502,4.701,1.728,1.324,2.491
-5.779,-5.857,3.461,1.724,1.085,3.08
-10.814,-9.745,5.22,1.717,1.068,3.736
-17.019,-17.699,8.766,0.61,0.298,2.286
-25.331,-16.382,14.381,-1.345,0.368,0.19
-34.921,-9.43,19.863,-3.153,0.065,-2.139
-37.251,-3.089,21.08,-4.46,-0.52,-4.284
-32.464,8.569,18.519,-4.697,-1.132,-5.586
-25.785,20.493,14.148,-3.222,-1.017,-4.192
-19.589,18.549,8.791,-0.795,-1.513,-1.94
-12.089,9.176,4.278,1.384,-1.124,-0.043
-9.602,0.079,3.78,2.684,-0.094,1.196
-8.799,-6.772,5.585,3.255,0.75,1.826
-8.487,-10.225,6.541,2.997,1.283,1.961
-6.87,-10.396,6.625,2.6,1.728,1.947
-4.933,-9.155,6.174,2.271,1.493,2.329
-4.687,-5.608,5.291,2.061,0.95,3.091
-6.938,-6.706,5.414,1.939,0.219,3.954
-13.669,-13.187,9.401,1.285,-0.544,3.689
-22.496,-16.432,14.951,-0.844,-0.05,1.476
-33.767,-12.039,25.943,-2.803,0.738,-0.803
-37.609,-5.509,31.193,-4.345,1.21,-3.246
-35.252,3.826,29.022,-5.022,1.072,-4.989
-29.852,14.664,23.507,-4.245,1.192,-4.994
-22.078,18.727,16.929,-1.793,0.53,-2.795
-12.239,13.534,6.286,0.467,0.047,-0.691
-9.581,3.787,2.431,2.397,0.063,1.262
-10.215,-4.8,5.0,3.115,0.876,2.223
-8.775,-9.262,5.816,3.094,1.624,2.471
-7.276,-10.206,6.807,2.785,1.93,2.563
-7.017,-10.725,7.274,2.544,1.764,2.615
-6.127,-8.448,6.005,2.011,1.28,2.846
-6.804,-5.779,4.84,1.917,0.535,3.385
-11.282,-8.313,5.954,1.797,-0.1,3.854
-20.535,-16.939,9.032,0.842,-0.794,2.416
-28.856,-15.317,17.851,-1.177,0.065,0.26
-37.347,-6.127,25.398,-3.075,0.024,-2.12
-37.381,1.932,25.163,-4.124,-0.164,-4.142
-34.133,10.068,22.028,-4.198,-0.33,-5.464
-25.293,21.701,16.842,-2.911,-0.133,-4.266
-17.853,20.069,7.321,-0.651,-1.045,-2.265
-10.361,8.785,0.517,1.563,-0.534,-0.193
-9.206,-2.237,1.254,2.47,0.405,1.251
-7.77,-7.48,3.393,2.585,1.199,2.114
-7.555,-9.404,4.672,2.288,1.832,2.524
-6.166,-8.597,5.475,2.028,2.104,3.065
-6.002,-6.898,5.335,1.827,1.544,3.721
-7.511,-3.975,5.345,2.056,0.875,4.437
-13.735,-9.226,6.98,1.893,-0.052,4.714
-20.098,-18.472,8.325,0.949,-0.694,3.294
-28.275,-19.582,16.709,-0.992,0.247,0.752
-41.119,-15.147,28.018,-3.005,-0.215,-1.975
-41.716,-5.144,29.255,-4.649,-0.135,-4.523
-35.354,6.703,24.915,-4.506,-0.152,-5.791
-30.191,18.497,22.706,-3.214,-0.408,-4.501
-24.406,18.023,13.437,-1.092,-1.424,-2.496
-11.53,11.868,2.293,1.095,-0.419,-0.515
-9.643,-0.325,0.954,2.628,0.134,1.197
-8.962,-7.142,4.165,2.803,1.312,2.238
-8.266,-8.758,5.244,2.654,1.923,2.383
-6.387,-8.972,6.458,2.646,2.302,2.816
-6.053,-9.16,6.729,2.393,1.759,3.271
-6.514,-7.018,5.611,2.117,1.169,3.782
-9.484,-7.324,4.248,1.826,0.079,4.173
-15.665,-16.687,5.886,1.199,0.081,3.665
-23.046,-20.138,11.204,-0.723,-0.242,1.227
-34.208,-15.735,20.43,-2.656,-0.093,-1.209
-39.752,-9.344,25.213,-4.166,0.054,-3.754
-37.368,0.41,23.563,-4.646,0.322,-5.372
-30.698,13.592,19.747,-3.901,-0.09,-5.052
-26.315,18.925,14.344,-1.528,-0.397,-2.397
-17.012,13.722,6.258,0.937,0.15,-0.066
-11.18,3.546,3.782,2.898,0.459,2.139
-11.7,-6.745,6.38,3.558,0.929,3.102
-10.991,-11.582,7.081,3.224,1.621,3.068
-8.03,-12.96,6.871,2.639,2.204,2.724
-5.691,-11.769,5.484,1.985,1.495,2.699
-5.208,-7.493,3.244,1.532,0.933,3.07
-7.772,-10.021,4.552,1.555,0.221,3.848
-15.464,-21.346,10.678,0.322,-0.735,2.745
-23.574,-19.676,17.612,-1.718,-0.432,0.435
-35.027,-13.106,25.26,-3.497,-0.554,-1.871
-37.483,-3.334,27.14,-4.519,-0.605,-4.009
-35.296,7.99,22.525,-4.559,-0.591,-5.169
-31.005,21.843,17.479,-2.582,-0.208,-3.647
-25.072,19.01,11.36,-0.176,-0.345,-1.582
-14.209,11.494,5.115,2.064,0.711,0.519
-11.848,-1.831,5.658,3.277,1.619,2.315
-9.962,-8.839,9.138,3.117,2.638,3.134
-8.144,-12.77,9.67,2.247,2.788,3.053
-5.806,-9.968,8.062,1.863,2.211,3.483
-5.495,-6.794,5.854,1.593,1.461,4.243
-12.557,-13.638,6.543,1.598,0.466,4.933
-24.011,-25.589,11.031,0.302,0.105,3.082
-32.715,-22.457,18.386,-1.485,0.194,0.465
-45.77,-14.695,26.035,-3.506,-0.242,-2.031
-2.399,-1.222,1.895,0.522,0.454,0.777
-2.994,-1.256,3.427,0.889,0.809,1.702
-4.991,-2.202,5.336,1.336,1.016,2.797
-8.279,-2.48,6.724,1.933,0.787,3.788
-11.558,-7.819,8.294,2.493,0.588,4.554
-17.11,-17.8,9.441,1.571,-0.399,3.717
-22.794,-22.347,14.522,-0.469,-0.146,1.13
-31.858,-20.953,24.494,-2.611,-0.45,-1.712
-38.335,-11.119,31.79,-4.954,-0.915,-4.38
-35.753,3.132,29.703,-5.802,-1.058,-5.651
-32.452,18.193,26.576,-4.425,-0.963,-5.245
-29.574,22.891,21.709,-1.682,-1.358,-2.502
-22.238,18.963,12.949,0.605,-0.683,-0.254
-14.369,6.571,6.272,2.814,0.139,1.667
-15.047,-4.555,7.945,3.549,1.117,2.463
-12.142,-10.542,10.0,3.018,1.989,2.608
-7.235,-10.211,8.725,2.248,1.561,2.351
-6.711,-6.196,6.941,2.339,1.049,2.948
-7.49,-3.144,6.806,2.601,0.82,3.791
-10.707,-2.654,7.204,2.766,-0.372,4.232
-15.663,-7.464,8.019,2.325,-0.676,4.308
-22.021,-14.842,9.649,0.9,-0.118,2.87
-29.366,-16.684,16.252,-1.325,0.475,0.024
-39.847,-13.204,26.105,-3.797,0.807,-2.808
-38.169,-0.937,29.14,-5.666,1.322,-5.031
-34.072,12.62,25.293,-5.529,0.51,-5.88
-29.921,23.301,22.413,-3.6,0.009,-4.598
-24.548,23.081,17.306,-0.911,-0.335,-2.129
-13.496,16.373,7.722,1.246,-0.143,-0.105
-11.789,3.399,4.019,2.933,0.125,1.462
-11.334,-5.579,7.006,3.318,1.591,2.171
-9.035,-9.612,8.44,2.792,2.022,2.368
-6.878,-9.591,6.927,2.01,1.823,2.588
-6.414,-7.388,6.079,1.853,1.315,3.198
-7.225,-4.817,6.402,1.843,0.679,4.05
-10.981,-7.346,7.531,1.723,-0.586,4.415
-15.148,-13.722,8.916,0.795,-1.439,3.566
-21.903,-17.167,12.866,-1.117,-0.886,1.248
-29.914,-16.001,20.459,-2.91,-0.375,-1.385
-36.681,-6.506,28.237,-5.076,0.217,-4.06
-28.872,6.466,27.003,-5.776,0.28,-5.181
-27.277,19.234,23.955,-4.329,-0.113,-4.427
-26.009,22.339,21.929,-1.485,-1.096,-1.977
-19.566,18.862,15.045,0.619,-1.0,0.229
-13.764,6.466,7.414,2.729,-1.031,2.066
-18.866,-4.49,7.653,3.361,0.283,2.42
-15.559,-10.782,8.737,2.659,1.827,2.034
-8.804,-9.483,7.321,1.726,2.656,1.673
-7.25,-6.722,6.432,1.585,1.907,1.845
-5.432,-3.685,5.809,1.72,1.51,2.406
-5.079,-1.11,5.33,2.125,0.273,3.227
-8.608,-3.289,7.127,2.544,-0.74,3.88
-16.672,-13.992,10.205,1.342,-1.679,3.3
-26.474,-17.065,18.479,-0.828,-0.221,0.923
-39.259,-14.502,30.977,-3.074,0.346,-1.475
-40.101,-2.075,35.912,-4.751,0.766,-3.935
-36.285,7.505,32.855,-5.299,0.694,-5.313
-29.445,21.681,28.543,-3.901,0.747,-4.799
-22.174,23.734,20.499,-1.42,-0.54,-2.217
-11.611,19.545,8.422,0.925,-0.606,0.081
-12.471,4.206,4.296,2.618,-0.654,2.022
-14.947,-5.273,6.366,3.182,0.479,2.582
-13.482,-9.274,6.676,3.176,1.092,2.332
-10.323,-9.589,7.147,2.99,1.943,2.394
-7.679,-8.365,7.378,2.536,1.463,2.996
-7.44,-4.141,6.657,2.331,1.022,3.76
-9.361,-3.543,6.773,2.489,0.057,4.499
-14.737,-10.427,9.892,1.895,-0.669,4.418
-24.52,-14.11,15.053,-0.328,-0.989,2.178
-34.42,-11.936,24.158,-2.219,-0.012,-0.721
-42.043,-4.574,32.851,-4.434,0.939,-3.575
-35.333,7.02,33.486,-5.681,1.339,-5.349
-28.583,20.728,28.623,-5.333,0.853,-5.636
-22.371,28.213,22.961,-2.6,-0.012,-3.449
-15.87,22.224,15.017,-0.0,-0.929,-1.418
-8.343,9.913,7.237,2.262,-1.414,0.565
-11.755,-1.423,5.39,3.171,-1.167,1.517
-11.601,-6.885,6.29,3.428,0.49,2.22
-9.862,-7.893,7.574,3.122,0.818,2.641
-8.846,-3.394,8.203,3.041,1.152,3.631
-10.35,-0.329,9.126,3.324,0.762,4.533
-13.593,-0.307,10.824,3.458,0.156,5.053
-18.321,-6.238,12.521,2.952,-0.628,4.466
-22.493,-13.0,13.048,1.23,-0.428,2.62
-28.217,-15.24,18.733,-1.186,0.368,-0.401
-36.339,-11.959,27.094,-3.731,1.231,-3.286
-36.825,0.236,31.544,-5.919,1.879,-5.688
-30.354,14.371,29.499,-6.174,1.628,-6.309
-25.177,24.958,26.808,-4.505,0.982,-5.234
-22.049,26.568,21.283,-1.649,-0.331,-2.561
-12.931,19.674,12.344,0.654,-0.641,-0.741
-9.604,7.026,6.622,2.849,-0.735,1.023
-12.644,-2.392,8.115,3.744,0.321,2.105
-12.459,-7.782,10.101,3.634,1.235,2.752
-10.189,-8.269,8.77,3.098,1.886,2.991
-8.949,-4.525,8.853,3.054,1.769,4.182
-11.935,-2.949,9.583,3.178,0.991,4.98
-14.259,-6.77,10.023,3.053,0.197,4.811
-19.585,-14.573,11.232,1.979,-0.36,3.368
-25.772,-17.138,17.699,-0.444,-0.139,0.654
-35.626,-14.612,27.253,-2.703,-0.02,-2.358
-38.594,-2.384,33.196,-5.173,0.817,-4.92
-32.944,10.31,31.427,-5.915,0.471,-6.026
-28.542,22.253,27.645,-4.732,0.006,-5.609
-23.546,24.094,21.017,-2.108,-0.579,-3.583
-13.574,18.825,10.978,-0.007,-0.482,-1.76
-6.941,5.583,3.514,2.108,-0.79,0.144
-9.748,-2.711,3.347,2.87,0.138,1.31
-9.715,-6.045,6.591,2.875,1.195,2.338
-8.955,-5.535,7.073,2.746,1.598,2.905
-9.7,-3.154,7.921,3.079,1.438,4.009
-13.392,-2.648,10.003,3.421,1.243,4.755
-15.868,-6.169,11.9,3.463,0.83,4.72
-17.583,-14.016,10.665,2.567,-0.014,3.267
-20.436,-17.626,13.979,0.485,-0.094,0.929
-26.801,-17.646,20.185,-1.947,-0.495,-1.998
-30.872,-11.245,25.715,-4.405,-0.368,-4.647
-27.085,-0.551,25.531,-5.437,-0.57,-5.914
-23.947,11.518,24.25,-4.763,-0.473,-5.491
-21.088,18.178,20.273,-2.664,-1.271,-3.527
-16.952,17.264,13.641,0.112,-0.861,-1.087
-12.328,9.0,9.367,2.671,-0.491,1.08
-15.747,-0.793,9.768,3.549,0.028,1.806
-14.978,-7.277,10.819,3.585,1.247,1.746
-11.058,-10.442,9.64,3.105,2.21,1.8
-9.279,-9.093,9.769,2.738,2.043,1.951
-6.819,-8.238,7.927,2.29,2.176,2.14
-4.51,-5.404,6.71,2.18,1.622,2.889
-6.922,-5.32,6.047,2.131,0.561,3.525
-11.648,-12.137,9.196,1.742,0.03,3.214
-19.723,-18.144,13.866,-0.627,-0.322,1.212
-28.779,-14.419,22.976,-2.738,0.228,-1.145
-36.973,-5.054,31.161,-4.855,-0.315,-3.564
-32.89,5.978,32.467,-5.936,-0.109,-4.78
-28.468,18.499,28.34,-5.317,-0.861,-4.928
-24.799,24.281,24.135,-2.518,-1.377,-2.979
-16.595,19.893,14.901,-0.403,-1.735,-1.316
-9.092,8.461,6.813,1.777,-1.009,0.438
-11.909,-1.889,4.935,2.81,-0.559,1.098
-11.298,-6.387,6.212,2.756,1.178,1.617
-7.216,-5.738,6.452,2.343,1.843,1.907
-7.78,-3.277,6.923,2.742,1.43,3.051
-10.195,-0.888,8.397,3.243,1.405,4.206
-13.131,-1.281,10.162,3.756,0.691,4.753
-17.052,-8.602,12.881,3.826,-0.128,4.108
-21.414,-17.583,16.398,1.949,-0.249,2.229
-29.206,-17.8,24.237,-0.564,0.224,-0.578
-37.773,-12.676,33.179,-3.246,-0.012,-3.486
-35.491,-1.421,34.254,-5.118,0.232,-5.632
-31.997,11.324,29.511,-5.359,-0.329,-6.135
-27.603,21.429,24.558,-3.27,-0.369,-4.851
-20.59,19.248,16.524,-0.844,-1.042,-2.826
-10.128,12.315,6.075,1.125,-0.599,-0.749
-9.696,0.645,3.227,2.484,-0.619,0.882
-10.395,-5.833,4.698,2.628,0.519,1.539
-8.935,-6.891,5.867,2.536,1.543,2.12
-8.533,-5.048,6.756,2.744,1.926,2.823
-9.237,-3.637,8.167,3.27,1.875,3.617
-10.816,-2.572,9.991,3.615,1.744,4.567
-13.695,-8.029,12.137,3.817,0.757,5.041
-20.831,-19.025,12.659,2.565,-0.132,3.657
-27.86,-21.841,18.222,0.047,0.094,0.928
-36.541,-19.474,27.812,-2.447,-0.14,-1.943
-39.761,-9.47,33.103,-4.957,-0.423,-4.802
-37.946,4.116,30.043,-5.789,-0.46,-6.239
-31.715,17.588,26.799,-4.502,-0.768,-5.872
-26.128,20.305,20.082,-1.934,-1.268,-3.556
-17.32,15.562,9.946,0.196,-0.69,-1.31
-13.04,3.886,4.081,2.4,0.109,0.705
-11.66,-5.071,5.485,2.86,1.041,1.751
-8.491,-7.809,6.587,2.467,2.239,2.721
-7.349,-6.365,7.081,2.229,1.615,3.08
-6.811,-4.907,7.449,2.563,1.409,3.491
-7.124,-2.855,7.251,2.786,0.639,4.164
-9.709,-2.729,7.989,3.21,-0.135,4.536
-14.877,-9.201,9.855,2.818,-0.844,4.036
-21.512,-16.666,13.403,0.946,-0.492,2.373
-28.45,-16.872,20.781,-1.518,0.126,-0.284
-36.631,-11.087,30.041,-3.945,0.663,-2.973
-33.577,-0.911,33.07,-5.472,1.007,-4.958
-30.352,11.06,29.786,-5.305,0.149,-5.792
-24.425,19.957,25.258,-3.33,-0.111,-4.516
-19.636,18.913,17.575,-0.707,-0.834,-2.512
-10.912,11.596,8.353,1.553,-0.755,-0.505
-12.633,1.014,4.813,2.897,-0.702,1.059
-12.437,-6.043,6.605,3.324,0.933,1.933
-10.147,-8.234,7.881,3.113,1.714,2.359
-8.522,-6.715,8.519,3.079,1.962,3.098
-8.783,-5.368,9.066,3.283,1.649,3.831
-10.27,-5.262,10.069,3.467,1.192,4.191
-11.616,-9.75,10.833,3.238,0.163,4.044
-15.763,-17.008,12.272,1.846,-0.292,2.82
-22.702,-18.977,19.147,-0.743,-0.438,0.242
-30.802,-16.389,27.917,-3.206,-0.186,-2.497
-33.308,-4.101,32.407,-5.612,0.137,-4.832
-31.094,8.791,29.832,-6.22,-0.194,-5.962
-27.079,19.657,25.872,-4.727,-0.376,-5.394
-22.513,22.022,18.473,-2.035,-0.903,-3.205
-14.336,17.447,9.622,0.339,-0.52,-1.113
-10.264,4.499,5.137,2.607,-0.305,0.943
-11.721,-4.628,7.135,3.328,0.975,2.024
-9.732,-9.284,8.59,3.083,1.847,2.427
-7.442,-9.077,8.722,2.702,2.175,2.778
-6.996,-7.443,8.495,2.646,1.777,3.351
-7.508,-5.185,7.922,2.746,1.379,3.82
-8.291,-5.534,8.025,2.748,0.385,4.13
-10.47,-9.62,8.941,2.299,-0.609,3.833
-14.449,-13.897,11.128,0.864,-0.789,2.79
-21.916,-14.989,18.197,-1.363,-0.581,0.601
-29.616,-12.169,27.17,-3.765,0.214,-2.023
-31.196,0.395,31.256,-5.892,1.169,-4.327
-28.361,13.975,28.071,-6.06,1.022,-5.403
-23.788,22.393,23.853,-4.431,0.988,-4.838
-21.53,23.361,18.311,-1.675,0.374,-2.807
-13.954,18.062,10.297,0.59,0.514,-0.714
-11.074,4.578,6.572,2.708,0.097,1.433
-13.303,-4.983,9.143,3.388,1.362,2.686
-12.485,-10.611,10.583,2.978,1.748,3.066
-7.702,-10.082,8.188,2.491,2.32,3.1
-6.172,-8.695,7.122,2.503,1.7,3.507
-6.348,-5.599,6.352,2.63,1.062,3.595
-7.657,-7.053,6.41,2.543,0.161,3.564
-10.9,-10.915,7.916,1.794,-0.276,3.16
-15.164,-15.277,12.624,-0.125,-0.315,1.953
-24.161,-14.784,20.739,-2.401,0.23,-0.548
-32.432,-7.999,29.394,-4.795,0.886,-2.898
-28.687,3.896,30.677,-5.415,1.086,-4.902
-26.015,14.67,26.252,-4.446,0.546,-5.762
-22.157,21.239,21.625,-2.223,0.307,-4.659
-18.521,18.951,15.04,0.256,-0.591,-2.505
-10.714,10.13,7.039,2.268,-0.199,-0.568
-12.283,-0.825,5.341,2.767,0.235,1.171
-11.423,-7.005,8.385,2.645,1.589,2.151
-11.096,-9.072,9.614,2.196,1.637,2.407
-7.359,-6.849,8.512,2.188,2.102,2.779
-5.959,-5.048,7.938,2.564,1.499,3.473
-7.718,-3.075,8.709,2.972,0.562,3.895
-10.299,-5.137,9.315,2.871,-0.343,3.798
-11.758,-10.832,8.907,2.142,-0.64,3.024
-15.908,-16.823,11.752,0.226,-0.731,1.62
-26.631,-18.433,21.123,-2.162,-0.195,-1.012
-36.387,-13.977,30.698,-4.62,0.626,-3.48
-35.203,-0.75,31.669,-5.7,0.986,-5.367
-32.183,12.174,28.316,-5.143,0.88,-5.652
-28.666,21.521,24.763,-3.008,0.547,-4.112
-22.936,19.372,17.046,-0.205,0.032,-1.718
-12.051,12.906,7.716,2.06,0.193,0.604
-11.969,-0.026,6.003,3.244,0.118,2.459
-12.545,-9.119,8.965,3.458,1.09,3.074
-11.055,-12.969,8.851,3.03,1.497,2.873
-7.191,-10.145,7.819,2.473,1.807,3.079
-6.706,-8.007,6.699,2.346,1.107,3.295
-6.283,-5.233,6.705,2.482,0.809,3.712
-8.321,-6.22,7.22,2.402,-0.312,3.93
-11.87,-8.656,8.281,1.422,-0.434,3.934
-18.799,-10.742,9.473,-0.256,-0.163,2.534
-26.971,-11.297,16.318,-2.063,0.882,-0.004
-37.24,-6.519,25.395,-4.395,2.552,-2.616
-35.038,8.075,28.462,-5.369,3.269,-5.083
-30.817,19.001,24.727,-4.661,2.389,-6.329
-23.831,24.704,21.45,-2.631,1.689,-5.095
-20.777,21.562,16.468,-0.265,0.605,-2.682
-10.797,14.75,7.875,1.831,-0.181,-0.564
-10.292,1.316,4.365,2.804,-0.005,1.673
-10.793,-7.042,7.504,3.148,1.102,2.956
-11.162,-10.173,10.003,2.915,1.557,3.402
-8.031,-8.158,9.035,2.574,1.953,3.834
-8.209,-6.743,8.482,2.833,1.122,4.335
-10.085,-6.026,8.425,2.997,0.218,4.51
-12.326,-8.681,8.927,2.687,-0.245,4.256
-16.326,-13.695,10.105,1.358,-0.511,3.09
-20.713,-15.775,14.836,-0.977,-0.511,0.543
-30.168,-13.434,23.327,-3.333,0.477,-2.077
-33.007,-2.095,29.314,-5.469,1.461,-4.488
-29.266,9.008,27.707,-5.743,0.889,-5.733
-24.855,18.295,24.191,-4.382,0.598,-5.102
-23.226,22.126,19.796,-1.851,-0.051,-2.527
-15.032,17.31,12.034,0.469,-0.419,-0.236
-12.582,5.473,6.11,2.572,-1.042,1.701
-14.695,-3.947,7.47,3.114,0.235,2.587
-13.627,-8.732,9.213,2.939,0.874,2.285
-9.124,-9.963,8.372,2.625,1.669,1.764
-7.11,-7.569,7.979,2.565,1.176,2.007
-5.789,-6.099,7.689,2.465,1.134,2.623
-6.896,-4.112,7.086,2.45,0.058,3.034
-9.774,-6.645,6.594,2.374,-0.373,3.211
-15.094,-13.252,8.908,1.647,-0.465,2.608
-22.112,-17.221,16.239,-0.487,0.088,0.141
-31.427,-14.682,26.252,-2.695,0.329,-2.412
-34.67,-6.249,32.261,-4.92,1.027,-4.506
-33.604,5.136,30.55,-5.476,0.467,-5.885
-28.604,16.871,25.944,-4.598,0.211,-5.685
-24.397,22.181,18.721,-1.968,-0.441,-3.137
-17.644,16.533,10.154,0.575,-0.119,-1.026
-12.876,6.305,5.111,2.722,-0.004,0.872
-11.864,-3.369,6.634,3.251,0.886,2.221
-10.972,-8.116,8.705,3.174,1.493,2.812
-8.963,-9.516,9.218,2.763,1.825,2.951
-6.642,-6.705,8.548,2.631,1.385,3.593
-7.608,-4.844,8.037,2.886,0.676,4.076
-9.294,-4.256,8.56,3.142,-0.078,4.253
-12.76,-8.783,9.513,2.773,-0.745,3.874
-19.819,-14.779,12.173,1.304,-0.397,2.123
-27.504,-15.392,18.144,-1.106,-0.11,-0.63
-35.956,-10.674,26.783,-3.561,0.195,-3.215
-35.731,-2.1,28.875,-5.278,0.38,-5.184
-33.489,8.448,25.082,-5.352,0.096,-5.995
-27.28,17.234,20.299,-3.834,-0.652,-4.977
-20.967,18.226,13.306,-1.294,-0.767,-2.65
-12.182,10.691,4.91,0.96,-0.244,-0.228
-11.519,1.867,2.865,2.49,0.127,1.648
-10.957,-5.133,5.381,2.813,0.922,2.554
-8.816,-7.893,6.437,2.681,1.562,3.074
-7.469,-7.824,7.165,2.438,1.578,3.647
-7.98,-4.512,7.035,2.55,0.888,4.064
-9.374,-3.366,7.042,2.813,0.487,4.481
-12.116,-4.76,8.031,2.868,-0.058,4.492
-17.59,-11.024,10.055,1.974,-0.611,3.626
-22.644,-14.718,15.266,-0.01,-0.298,0.933
-30.274,-14.173,22.333,-2.374,-0.227,-1.906
-33.803,-6.805,28.257,-4.826,0.187,-4.597
-31.986,3.475,26.834,-5.681,-0.379,-6.212
-26.945,14.619,22.093,-4.759,-0.248,-5.973
-24.369,19.655,16.524,-2.507,-0.925,-3.563
-17.906,15.635,9.999,-0.092,-0.2,-1.341
-12.417,6.984,4.241,1.986,0.01,0.841
-12.246,-2.47,5.073,2.625,0.846,2.249
-12.278,-8.403,7.918,2.488,1.497,2.395
-8.603,-10.507,7.296,2.028,1.879,2.118
-6.482,-7.916,6.707,1.932,1.541,2.561
-6.162,-6.532,6.109,2.121,1.082,3.056
-6.301,-3.402,5.936,2.34,0.636,3.718
-8.977,-2.326,6.043,2.643,-0.317,4.34
-16.97,-8.9,8.931,2.385,-0.343,3.901
-23.412,-14.629,13.864,0.399,-0.075,1.236
-31.334,-13.577,22.241,-1.869,0.128,-1.441
-40.249,-9.951,29.841,-4.116,0.595,-4.162
-37.723,0.323,29.08,-5.134,0.245,-6.313
-31.402,13.123,23.92,-4.625,-0.103,-6.492
-26.528,20.899,18.762,-2.218,-0.737,-4.026
-21.468,17.813,11.207,0.353,-0.561,-1.509
-12.519,11.595,4.67,2.489,-0.252,1.063
-14.291,-0.137,5.899,3.245,0.372,2.887
-14.359,-7.766,9.328,3.124,1.08,3.277
-12.83,-11.452,9.53,2.602,1.442,2.801
-9.212,-9.57,8.391,2.193,1.807,2.442
-6.917,-8.085,7.898,2.396,1.517,2.553
-5.827,-5.658,7.991,2.358,0.909,2.753
-6.869,-4.009,7.188,2.272,-0.148,3.087
-9.102,-6.761,7.368,1.983,-0.543,3.265
-17.005,-14.672,12.151,0.676,-1.11,2.201
-26.766,-16.356,19.251,-1.663,-0.498,-0.482
-35.015,-11.857,26.733,-3.822,-0.039,-3.039
-31.965,-2.476,29.126,-4.751,0.294,-4.919
-29.113,8.05,26.411,-4.529,-0.225,-5.341
-24.96,18.212,21.957,-2.712,-0.818,-3.814
-20.382,16.677,15.166,-0.144,-1.251,-1.63
-12.285,9.543,7.863,2.049,-0.613,0.424
-14.801,-1.447,5.708,2.814,-0.099,1.725
-14.578,-8.533,7.865,2.797,1.513,2.007
-11.234,-11.503,7.998,2.255,2.678,1.799
-7.383,-8.348,7.946,1.733,2.952,2.251
-5.882,-6.871,7.356,1.765,2.543,2.852
-4.298,-4.305,7.199,1.97,1.802,3.524
-5.454,-3.67,6.873,2.199,0.231,3.944
-8.76,-6.789,6.527,2.161,-0.852,3.828
-17.926,-14.729,9.009,0.766,-1.651,2.85
-26.622,-16.269,17.056,-1.459,-0.078,0.194
-37.49,-12.598,27.241,-3.649,0.444,-2.345
-36.475,-1.668,31.081,-5.004,0.96,-4.708
-33.98,8.427,28.396,-5.019,0.838,-5.802
-26.505,18.271,24.896,-3.136,0.906,-5.186
-21.408,17.495,16.755,-0.738,-0.649,-3.048
-11.15,12.231,6.467,1.373,-0.408,-0.897
-12.195,0.026,2.869,2.562,-0.077,1.199
-11.972,-7.371,5.834,2.67,1.092,2.369
-10.362,-10.296,6.312,2.243,1.353,2.778
-8.649,-8.05,6.181,1.979,1.657,3.435
-8.324,-7.037,6.43,2.173,1.388,4.041
-8.275,-5.203,6.594,2.354,0.976,4.434
-8.427,-4.112,6.548,2.566,0.063,4.58
-9.542,-5.474,6.759,2.47,-0.679,4.265
-13.934,-9.731,8.336,1.523,-1.496,3.434
-21.484,-14.285,14.188,-0.593,-0.971,1.102
-29.23,-12.329,23.502,-2.971,0.64,-1.473
-35.734,-5.347,29.864,-5.295,1.01,-3.99
-33.955,5.561,30.083,-6.021,1.126,-5.867
-29.497,15.207,26.392,-4.89,1.061,-6.38
-23.646,20.763,20.044,-2.373,0.329,-4.588
-17.527,15.702,11.379,0.162,-0.713,-2.379
-11.348,6.938,5.34,2.239,-0.36,-0.155
-12.589,-3.587,4.822,3.015,0.595,1.608
-10.266,-9.322,6.727,2.693,1.852,2.766
-9.432,-10.388,7.787,2.3,2.078,3.454
-8.019,-7.276,8.251,2.227,2.124,4.004
-7.539,-5.21,8.466,2.492,1.622,4.558
-7.663,-3.202,8.646,2.81,0.652,4.948
-10.696,-3.631,9.309,3.107,-0.367,4.864
-12.989,-8.667,9.248,2.293,-1.017,4.183
-19.469,-14.282,13.685,0.525,-0.361,2.643
-29.581,-14.173,22.289,-1.891,0.913,-0.134
-39.219,-3.735,31.719,-4.268,1.709,-2.778
-37.279,7.567,33.095,-5.566,1.548,-5.303
-33.773,18.318,29.678,-5.101,1.829,-6.193
-27.399,25.984,23.63,-3.376,0.721,-5.184
-19.674,24.164,15.052,-0.912,-0.546,-2.879
-9.793,12.206,5.27,1.161,-0.628,-0.78
-10.07,0.811,2.799,2.377,-0.084,1.343
-9.987,-5.274,5.292,2.705,0.671,2.349
-9.118,-7.722,6.318,2.533,0.955,2.836
-8.126,-5.536,6.11,2.432,1.263,3.385
-8.336,-3.456,6.898,2.69,0.957,4.201
-10.282,-1.908,7.973,2.938,0.28,4.706
-12.202,-2.926,9.347,2.954,-0.229,4.706
-15.467,-8.207,9.657,2.48,-0.842,3.784
-20.488,-14.477,13.388,0.699,-1.162,1.713
-27.874,-15.438,21.801,-1.633,-0.026,-1.201
-36.136,-8.975,30.675,-4.092,0.415,-3.83
-33.429,2.763,31.101,-5.466,0.241,-5.721
-29.627,14.109,27.497,-4.989,0.031,-5.972
-26.321,21.516,24.127,-2.986,-0.161,-4.272
-20.643,18.922,15.371,-0.6,-0.75,-2.164
-10.549,10.832,5.902,1.503,-0.285,-0.093
-12.101,-1.091,4.437,2.68,0.346,1.448
-11.952,-8.324,7.106,2.595,1.59,1.963
-7.373,-10.476,6.663,2.079,2.325,1.984
-5.238,-7.133,6.318,1.819,1.675,2.697
-5.495,-5.477,6.74,2.042,1.279,3.498
-6.842,-3.238,6.744,2.287,0.342,4.177
-9.333,-3.035,6.984,2.573,-0.494,4.474
-14.813,-9.901,8.518,2.548,-1.36,3.973
-23.372,-16.533,14.865,0.757,-1.145,1.649
-30.698,-15.393,24.208,-1.568,-0.227,-1.223
-36.585,-8.538,31.492,-3.926,0.025,-3.891
-34.082,1.215,32.245,-5.058,-0.778,-5.72
-30.797,13.369,27.712,-4.902,-0.581,-6.07
-23.996,20.558,21.162,-2.538,-0.905,-4.321
-17.874,16.064,12.031,-0.124,-1.254,-2.274
-10.61,7.537,4.624,2.019,-0.985,-0.274
-11.708,-2.608,3.478,2.942,0.323,1.319
-10.629,-8.185,6.282,3.004,1.083,2.031
-9.064,-9.711,7.213,2.552,1.607,2.53
-8.127,-6.849,7.756,2.433,1.6,3.384
-8.243,-5.776,8.672,2.489,1.366,4.293
-9.717,-4.228,9.321,2.597,0.584,4.726
-11.358,-4.953,9.172,2.654,-0.125,4.602
-15.585,-12.174,8.94,2.249,-0.849,3.481
-23.554,-17.326,13.853,0.12,-0.894,0.771
-29.951,-15.292,21.617,-2.079,0.181,-2.138
-34.214,-8.942,26.905,-4.313,0.133,-4.691
-32.677,-0.552,26.574,-5.193,-0.542,-6.142
-30.205,10.707,23.793,-4.736,-0.573,-6.123
-23.968,16.445,17.796,-2.371,-0.829,-4.142
-18.358,12.341,9.73,0.042,-1.375,-2.046
-12.708,4.303,4.475,2.106,-0.468,0.195
-12.966,-4.614,4.985,2.798,0.846,1.665
-10.338,-9.451,7.242,2.536,1.948,2.451
-7.755,-10.761,7.367,2.105,1.89,2.873
-6.566,-9.067,6.957,1.886,1.857,3.338
-5.408,-7.283,6.728,2.016,1.469,3.708
-4.97,-4.699,6.672,2.276,0.487,3.929
-7.301,-4.422,6.684,2.598,-0.82,3.872
-9.665,-7.128,7.203,2.44,-1.034,3.458
-15.625,-12.494,11.487,1.259,-1.158,2.298
-23.57,-14.7,19.128,-1.048,-0.457,-0.313
-32.43,-11.327,27.867,-3.441,0.323,-2.793
-31.847,-1.256,31.964,-5.283,1.372,-4.667
-29.23,8.745,29.595,-5.207,0.549,-5.806
-24.886,17.275,23.881,-3.68,0.367,-5.175
-19.775,18.883,16.833,-1.028,-0.086,-2.756
-12.287,12.58,9.151,1.325,0.127,-0.55
-11.309,1.5,5.69,2.942,0.057,1.085
-11.75,-6.699,7.351,2.943,1.34,2.208
-9.418,-10.847,8.519,2.469,1.745,2.533
-7.986,-11.309,7.824,1.925,1.627,2.574
-7.197,-9.006,6.486,1.725,1.274,2.745
-6.383,-6.379,5.385,1.803,0.946,3.113
-5.317,-3.694,5.075,2.201,0.293,3.536
-7.538,-3.605,6.021,2.525,-0.443,3.823
-10.98,-6.645,9.26,1.947,-0.662,3.575
-17.993,-11.224,14.641,0.086,-0.527,1.825
-26.988,-9.855,23.701,-2.126,0.283,-0.678
-33.904,-1.428,30.892,-4.543,1.219,-3.263
-29.795,7.7,30.795,-5.38,0.758,-5.634
-27.498,16.672,24.491,-4.66,0.413,-6.098
-22.214,22.576,19.479,-2.313,0.281,-4.237
-16.635,16.922,12.086,0.21,-0.175,-2.185
-10.4,6.126,5.914,2.368,-0.216,-0.149
-12.087,-2.943,5.039,2.899,0.946,1.829
-9.834,-7.864,8.437,2.892,1.748,2.717
-8.967,-8.972,9.047,2.743,1.721,3.081
-6.743,-5.413,8.482,2.686,1.805,3.903
-7.538,-2.912,8.552,2.896,0.957,4.714
-10.594,-2.434,9.607,3.255,0.058,4.93
-13.123,-6.564,9.665,3.197,-0.605,4.21
-16.364,-13.014,11.331,1.768,-0.904,2.578
-22.194,-15.274,18.481,-0.699,-0.923,-0.091
-30.577,-13.563,27.842,-3.066,-0.337,-2.937
-32.992,-3.854,31.778,-5.5,0.362,-5.26
-31.283,7.371,29.556,-6.182,-0.009,-6.648
-26.434,17.867,24.595,-4.845,0.236,-6.124
-21.764,21.528,17.725,-2.034,-0.165,-3.916
-15.13,15.418,9.34,0.566,-0.109,-1.699
-10.652,5.103,5.423,2.655,0.148,0.372
-10.586,-3.815,7.322,3.258,1.106,1.991
-10.37,-9.321,10.496,3.048,1.753,2.674
-8.547,-10.876,10.09,2.366,1.887,2.974
-6.244,-6.664,8.644,2.068,1.675,3.62
-6.114,-4.633,8.108,2.278,1.075,4.369
-7.621,-2.603,8.443,2.669,0.069,4.702
-10.641,-4.379,8.446,2.719,-0.708,4.358
-15.147,-10.914,10.838,1.793,-0.831,3.134
-22.689,-14.016,18.56,-0.508,-0.453,0.475
-31.564,-11.503,28.273,-2.816,0.033,-2.491
-34.198,-3.663,32.701,-5.314,1.18,-4.816
-31.811,6.588,31.1,-6.112,0.601,-6.332
-27.915,17.726,25.753,-5.219,0.733,-6.015
-21.068,21.591,17.791,-2.631,0.218,-3.741
-14.077,16.501,8.952,0.009,0.288,-1.329
-9.17,7.488,5.298,2.16,0.301,0.924
-9.474,-0.483,7.133,3.086,0.776,2.79
-9.843,-5.533,10.299,3.477,0.913,3.327
-9.799,-7.735,12.092,3.475,0.916,3.317
-8.491,-6.663,11.684,3.255,0.598,3.383
-9.418,-5.849,10.068,3.498,0.022,3.482
-10.281,-5.523,8.772,3.484,-0.073,3.427
-11.537,-6.913,8.507,3.122,-0.283,3.382
-14.74,-12.728,10.317,1.625,0.13,2.861
-20.93,-14.864,18.609,-0.795,0.933,0.871
-31.273,-11.822,30.197,-3.188,1.815,-1.636
-34.71,-1.169,39.361,-5.539,2.352,-4.014
-32.502,8.97,38.677,-6.499,1.596,-5.863
-28.951,20.111,32.387,-5.499,0.834,-6.221
-24.26,25.06,22.881,-2.933,-0.267,-4.57
-14.8,20.713,12.014,-0.308,-0.526,-2.338
-10.582,8.666,4.508,1.96,-0.3,-0.086
-11.164,-1.071,5.057,3.001,0.711,1.564
-10.233,-6.962,8.092,3.194,1.794,2.175
-7.527,-9.114,8.694,3.011,2.157,2.533
-6.776,-8.201,8.944,3.0,1.981,2.949
-6.72,-6.809,8.529,3.246,1.581,3.309
-6.792,-5.163,9.29,3.472,1.015,3.783
-8.789,-6.867,10.955,3.274,-0.444,3.89
-11.502,-9.432,12.391,1.958,-1.104,3.437
-13.811,-10.845,11.849,0.097,-1.172,2.617
-18.463,-14.688,15.336,-1.684,-0.558,1.098
-25.807,-15.502,25.092,-4.116,1.03,-1.476
