ax,ay,az,gx,gy,gz
-1.107,-9.069,-3.167,-0.083,-0.114,0.318
-1.365,-9.142,-3.151,-0.081,-0.118,0.323
-1.628,-9.216,-3.141,-0.072,-0.137,0.282
-1.754,-9.185,-3.122,-0.076,-0.128,0.214
-1.84,-8.979,-3.082,-0.086,-0.129,0.172
-1.843,-8.822,-3.044,-0.097,-0.147,0.195
-2.063,-8.788,-3.106,-0.102,-0.181,0.235
-2.503,-8.898,-3.235,-0.093,-0.21,0.207
-2.814,-8.944,-3.323,-0.063,-0.167,0.124
-2.729,-8.952,-3.372,-0.025,-0.112,0.033
-2.682,-8.824,-3.285,0.021,-0.028,-0.005
-2.464,-8.619,-2.862,0.038,-0.005,0.056
-2.001,-8.426,-2.461,0.002,-0.097,0.236
-2.078,-8.532,-2.026,-0.066,-0.143,0.48
-2.004,-8.652,-1.582,-0.13,-0.093,0.698
-1.044,-9.29,-1.077,-0.203,-0.167,0.714
0.875,-13.128,-0.354,-0.272,-0.566,0.322
2.414,-17.313,1.114,-0.686,-1.038,-0.404
2.016,-20.809,2.485,-1.264,-1.523,-0.897
0.557,-22.573,4.123,-2.145,-0.742,-0.691
-0.559,-19.072,7.292,-3.85,1.051,0.816
-4.026,-3.024,5.46,-4.979,3.235,1.537
5.058,4.378,7.413,-3.576,3.524,3.356
7.456,11.006,5.913,-3.045,2.39,3.315
6.711,18.742,3.907,-1.849,-0.225,1.605
3.529,17.874,0.751,0.373,-2.529,-0.433
4.362,5.499,2.765,2.462,-4.581,-1.011
-6.783,-0.287,-0.214,2.271,-4.382,-2.508
-8.195,-5.533,-0.611,2.843,-1.824,-2.281
-5.065,-12.647,0.173,3.018,0.928,-0.985
-0.562,-15.383,0.422,2.781,1.768,-0.386
0.391,-15.15,0.025,2.003,2.018,-0.158
1.539,-12.649,0.381,1.331,2.282,0.171
2.992,-10.841,1.4,0.829,1.445,0.254
4.325,-13.45,2.577,0.336,0.074,-0.096
4.595,-17.337,3.525,-0.221,-0.984,-0.843
3.343,-21.839,4.688,-1.031,-1.287,-1.028
1.099,-22.75,5.666,-2.371,-0.613,-0.294
-2.472,-4.918,9.735,-4.081,1.061,1.306
1.063,7.416,13.088,-3.656,3.049,2.169
3.249,16.266,14.698,-3.168,2.078,2.186
1.277,24.513,12.607,-2.405,0.69,1.247
-1.027,27.493,11.543,-0.529,-0.937,0.019
-0.262,9.228,7.362,2.138,-2.882,-1.586
-6.263,-1.787,3.247,2.73,-4.468,-2.167
-9.799,-8.202,-0.033,3.133,-2.191,-1.452
-6.337,-13.476,1.333,3.536,0.247,-0.389
-1.407,-16.153,1.589,3.16,1.416,0.105
0.187,-15.536,1.577,2.311,1.439,0.166
0.801,-13.765,0.899,1.329,1.478,0.248
2.182,-13.91,2.04,0.65,1.054,-0.148
3.217,-17.344,3.152,-0.202,-0.277,-0.849
1.574,-22.087,4.621,-1.22,-1.306,-1.582
-1.622,-24.662,6.678,-2.385,-0.848,-1.536
-2.854,-18.406,10.915,-4.119,0.823,-0.024
1.075,-5.175,11.373,-4.296,2.463,0.998
3.561,5.006,14.063,-3.679,1.356,0.713
-0.176,15.137,10.697,-2.79,0.285,0.326
-1.526,19.602,9.619,-1.136,-0.796,-0.022
-2.656,11.578,5.535,1.705,-2.621,-1.334
-8.936,-1.227,5.556,3.179,-4.108,-2.01
-12.765,-8.461,0.667,3.501,-1.72,-0.958
-8.785,-14.205,2.277,3.926,0.891,0.064
-2.94,-16.728,1.823,3.735,2.316,0.406
-0.577,-14.598,1.935,2.766,2.201,0.092
0.891,-12.735,0.912,1.622,1.902,-0.035
2.04,-11.629,2.276,1.028,1.2,-0.317
4.767,-14.817,4.533,0.373,-0.351,-0.798
3.407,-18.629,7.393,-0.598,-2.44,-1.53
-0.092,-22.75,10.076,-1.732,-2.984,-1.563
-2.767,-24.512,13.659,-3.452,-1.266,-0.755
-5.835,-6.399,19.447,-5.162,0.54,0.605
4.39,3.287,21.861,-4.436,0.446,2.068
3.0,14.654,19.913,-3.429,0.161,1.042
-1.187,20.751,17.686,-1.746,-0.847,0.667
-1.261,22.781,15.675,0.919,-2.963,-0.2
-0.239,2.791,9.868,3.779,-4.467,-1.687
-12.347,-5.557,4.708,3.771,-2.583,-2.62
-10.686,-13.749,3.782,3.718,0.398,-0.949
-1.424,-15.844,3.967,3.376,3.038,-0.276
2.152,-16.26,2.237,2.55,3.18,-0.143
2.862,-13.394,1.568,1.554,2.421,0.228
2.669,-10.722,1.901,0.976,0.677,0.215
2.831,-11.293,2.027,0.531,-0.769,0.074
2.758,-16.234,3.419,-0.125,-2.314,-0.658
0.563,-21.795,6.335,-0.905,-2.829,-1.272
-1.414,-24.204,8.562,-1.827,-2.114,-1.081
-2.234,-22.004,13.119,-3.604,0.272,0.381
0.011,-5.337,13.102,-4.429,2.23,0.86
4.058,1.809,18.408,-4.694,1.136,0.611
-4.528,12.575,15.275,-3.475,0.199,-0.09
-5.18,18.255,13.605,-2.096,-0.268,-0.777
-6.24,13.843,10.69,0.606,-2.856,-2.431
-10.226,-3.463,11.22,2.417,-4.094,-2.939
-15.699,-6.589,2.628,3.559,-1.418,-2.119
-5.87,-13.263,3.657,3.406,1.793,-0.663
-1.26,-17.282,2.96,3.041,2.297,-0.059
0.381,-15.063,1.334,2.129,2.969,0.144
1.815,-12.797,0.785,1.207,2.635,0.344
3.046,-13.726,3.556,0.543,1.53,0.02
2.97,-16.852,5.182,-0.219,-1.068,-0.889
-0.371,-21.679,8.284,-1.073,-2.071,-1.717
-3.733,-24.13,10.509,-2.457,-1.466,-1.661
-6.639,-14.908,14.622,-4.173,0.106,-0.661
-4.863,-0.158,15.7,-5.009,2.027,0.519
0.127,8.505,18.224,-4.832,1.414,0.813
-2.44,20.067,13.713,-3.645,0.437,0.321
-1.415,26.741,11.79,-1.573,-0.973,-0.432
-1.411,16.608,9.18,1.329,-3.717,-1.75
-3.672,2.156,7.32,3.302,-4.374,-2.53
-6.141,-5.278,3.34,3.932,-1.415,-1.624
-0.938,-12.797,4.894,3.568,0.513,-0.31
1.347,-17.128,4.316,2.909,1.283,0.545
3.707,-15.563,2.109,1.812,2.229,0.957
2.871,-13.779,1.193,0.712,1.111,0.891
1.029,-12.822,1.391,0.147,-0.164,0.215
1.131,-16.036,3.304,-0.325,-0.857,-0.486
0.014,-20.223,4.91,-1.2,-1.011,-1.235
-2.09,-21.888,6.579,-2.62,-0.246,-1.284
-4.517,-15.439,8.986,-4.293,1.529,-0.701
-0.271,0.955,11.431,-4.808,3.337,0.886
2.692,12.967,15.13,-4.616,2.103,0.923
-3.673,20.929,15.207,-3.07,0.716,0.438
-4.083,23.522,15.658,-0.99,0.26,0.161
-1.641,10.781,12.597,1.589,-0.884,-0.43
-5.723,-6.044,9.986,3.068,-1.751,-1.699
-7.682,-15.129,4.525,3.556,0.765,-0.926
0.935,-19.855,3.362,3.048,2.444,0.216
3.852,-21.116,1.227,2.376,1.872,0.499
3.327,-14.657,2.021,1.539,0.966,0.474
2.6,-11.798,1.252,0.548,-0.113,0.292
1.583,-11.624,1.737,0.033,-1.152,-0.211
2.409,-14.259,2.577,-0.476,-1.673,-0.727
1.932,-19.373,4.608,-1.138,-1.949,-1.111
-0.467,-22.251,5.07,-2.21,-1.58,-1.016
-3.059,-18.617,7.631,-3.859,0.366,-0.064
-1.151,0.152,8.784,-4.674,2.382,1.085
3.515,12.129,11.745,-4.276,1.224,1.338
-1.63,20.688,14.445,-1.934,0.066,0.043
-3.147,20.474,16.137,-0.276,0.758,-0.378
1.445,12.947,12.965,2.174,0.296,-1.149
0.362,-6.875,10.85,3.627,-0.912,-2.152
-3.732,-15.927,6.977,3.787,1.303,-1.929
1.916,-19.479,2.391,2.155,2.558,-0.103
5.216,-16.274,0.093,1.641,1.305,0.382
2.492,-12.402,0.43,0.904,0.167,0.401
1.511,-10.975,0.531,0.314,-0.065,0.484
1.303,-14.865,1.429,-0.076,-0.47,-0.048
1.735,-20.535,2.94,-0.699,-0.697,-1.085
0.611,-24.612,5.689,-1.715,-0.348,-1.552
-1.343,-23.568,7.31,-3.429,0.853,-0.953
-0.673,-5.958,8.167,-5.095,2.293,0.667
4.842,7.592,9.758,-4.657,0.484,1.212
2.402,17.88,7.068,-3.162,-0.544,0.625
-2.027,19.991,6.254,-1.328,-2.142,0.694
-0.551,15.5,4.947,1.225,-2.165,0.18
-0.566,-4.106,5.371,3.765,-2.744,-1.046
-5.662,-14.443,2.763,3.76,-0.357,-0.817
-2.981,-19.731,4.191,2.976,1.05,0.733
3.075,-18.208,2.362,2.158,2.378,1.252
3.403,-14.777,2.113,1.386,0.938,1.209
2.19,-12.412,0.965,0.524,-0.091,0.832
1.277,-13.517,2.214,0.087,-0.71,0.222
1.634,-17.58,3.732,-0.45,-1.141,-0.626
0.304,-22.548,6.067,-1.285,-1.602,-1.568
-1.658,-23.972,7.325,-2.582,-0.835,-1.716
-3.103,-18.305,9.963,-4.26,0.773,-0.697
1.049,-2.258,8.114,-4.585,2.496,0.788
4.36,8.662,11.767,-4.011,1.521,0.917
5.265,22.15,6.763,-2.872,0.655,0.646
4.509,25.973,8.31,-0.724,-1.744,0.574
1.369,15.463,6.509,2.037,-3.643,-0.544
-3.632,-2.716,7.719,3.527,-4.007,-1.506
-5.973,-10.428,2.796,3.984,-1.353,-0.887
-4.115,-19.51,5.652,3.922,0.197,0.161
-1.2,-22.188,2.855,3.113,1.592,0.352
2.593,-16.537,1.832,2.07,1.691,0.619
2.031,-12.425,1.348,0.864,0.354,0.479
0.677,-13.444,2.35,0.035,-0.558,0.202
0.856,-17.828,4.67,-0.768,-1.138,-0.617
-1.047,-22.482,6.967,-1.781,-1.849,-1.442
-3.781,-23.287,8.501,-2.999,-1.016,-1.442
-4.864,-14.707,11.194,-4.594,0.685,-0.273
2.537,-0.453,10.441,-4.615,2.437,0.941
4.914,12.627,10.748,-3.772,1.466,1.013
4.955,23.459,7.403,-2.456,0.783,0.68
3.66,25.129,9.512,-0.193,-1.744,0.033
1.916,11.526,6.111,2.487,-3.205,-1.521
-5.114,-3.957,6.459,3.789,-3.239,-2.397
-5.846,-13.009,3.549,3.925,-1.269,-1.544
-3.809,-19.66,4.256,3.768,0.017,-0.337
-0.316,-20.838,0.577,2.885,1.699,0.227
2.09,-15.067,0.986,1.967,1.398,0.603
0.782,-11.193,-0.235,0.718,-0.244,0.51
-1.17,-13.097,1.014,0.209,-0.162,0.158
-0.02,-18.217,3.694,-0.335,-0.32,-0.625
-1.049,-23.121,6.645,-1.195,-0.921,-1.406
-3.212,-23.693,7.959,-2.641,-0.052,-1.346
-5.634,-10.219,11.698,-4.27,1.624,-0.18
1.813,4.97,13.418,-4.262,3.065,0.833
3.661,19.158,14.364,-3.625,1.937,0.513
1.025,29.45,11.743,-2.176,0.856,0.461
-0.786,29.444,13.61,0.25,-1.466,0.19
1.326,11.179,10.011,3.013,-2.409,-1.3
-4.422,-4.208,7.322,4.044,-2.557,-2.242
-4.382,-14.063,4.161,4.071,-0.697,-1.482
-0.018,-18.956,3.58,3.295,0.399,-0.744
3.057,-17.918,0.08,2.29,1.581,-0.496
2.812,-12.837,0.13,1.227,0.865,-0.07
0.477,-9.553,-0.196,0.154,-0.618,0.127
-1.165,-9.785,0.776,-0.245,-0.422,0.219
1.097,-15.344,2.577,-0.362,-0.112,-0.214
1.432,-21.691,4.455,-1.142,-0.284,-0.869
-0.096,-25.08,6.506,-2.389,0.046,-0.9
-3.304,-12.147,11.051,-4.08,1.678,0.472
5.283,0.582,13.786,-3.861,3.113,1.892
4.266,11.448,15.738,-3.306,1.708,0.958
0.477,21.697,11.91,-2.117,0.42,0.804
1.1,28.165,9.947,-0.321,-0.132,0.558
1.911,14.397,6.319,2.461,-3.129,-0.721
-9.256,-0.467,3.938,3.205,-4.487,-1.954
-9.539,-7.865,-0.4,3.358,-2.03,-0.559
-3.916,-13.359,2.027,3.359,0.578,0.172
-1.257,-16.922,1.08,2.884,0.54,0.337
0.32,-16.13,-0.439,1.825,1.548,0.203
1.397,-11.996,-2.16,0.842,1.043,0.087
0.817,-10.313,-1.101,0.228,0.284,0.018
0.727,-11.396,-0.508,-0.163,-0.228,-0.079
1.452,-17.997,2.379,-0.23,-0.235,-0.462
0.454,-23.511,4.496,-1.003,-0.02,-0.89
-0.832,-22.955,8.071,-2.674,1.34,-0.227
-0.495,-5.511,8.804,-4.093,3.135,0.912
7.867,-0.275,13.367,-4.138,1.039,1.115
2.636,12.64,9.749,-3.612,-0.529,-0.055
0.764,21.226,7.104,-2.42,-1.359,-0.096
0.585,21.73,4.577,0.145,-3.694,-0.804
-1.954,1.586,3.918,2.618,-5.591,-2.04
-11.396,-3.405,-2.091,3.371,-3.052,-2.026
-8.092,-10.539,-0.343,3.544,-0.64,-0.357
-4.026,-14.615,1.06,3.515,0.267,0.127
-2.785,-16.244,-0.147,2.86,1.162,0.177
-0.917,-13.726,-0.324,1.93,1.64,0.32
-0.274,-12.575,0.612,1.105,0.902,0.183
0.551,-14.985,2.064,0.309,0.137,-0.194
-0.328,-20.698,4.23,-0.542,-0.416,-1.002
-3.347,-25.92,7.738,-1.861,-0.386,-1.518
-5.914,-22.314,10.795,-3.656,1.033,-0.682
-2.089,-5.719,13.628,-4.306,2.724,0.992
0.96,2.204,14.723,-4.052,1.078,0.31
-1.231,13.96,9.467,-3.441,-0.164,0.155
-0.023,23.054,6.282,-1.848,-0.988,0.21
-0.042,20.087,3.705,0.857,-3.934,-0.74
-5.925,1.347,2.089,2.656,-5.162,-2.362
-9.442,-5.193,-0.924,3.215,-2.592,-0.979
-7.176,-12.427,3.143,3.636,-0.229,0.148
-4.079,-16.848,3.805,3.298,0.787,0.667
-1.318,-17.821,3.596,2.377,2.275,0.728
1.101,-14.973,2.139,1.27,1.75,0.446
2.055,-14.92,2.845,0.519,0.576,-0.372
2.523,-17.735,2.439,-0.302,-0.754,-1.205
0.416,-20.598,2.833,-0.951,-1.122,-1.786
-2.09,-21.402,3.012,-1.999,-0.54,-1.575
-3.657,-17.257,5.87,-3.679,1.214,-0.428
-2.051,-1.58,2.469,-4.201,3.31,0.768
4.304,6.234,5.32,-3.776,2.454,1.227
5.107,14.991,2.4,-3.097,1.05,0.908
6.083,20.694,-0.424,-1.552,-1.065,0.402
5.135,19.257,-1.701,0.991,-4.558,-1.393
-0.911,-0.017,0.283,2.229,-6.764,-2.414
-7.954,-5.332,-2.221,2.743,-4.06,-2.277
-5.485,-11.454,-0.021,2.942,-1.649,-1.285
-3.171,-16.716,2.673,2.601,-0.338,-1.027
-0.674,-19.773,0.777,1.865,1.436,-0.295
3.946,-14.851,1.689,1.265,1.962,-0.297
5.544,-14.363,0.955,0.462,0.282,-0.689
4.654,-16.27,1.139,-0.362,-1.025,-1.344
2.733,-20.364,1.988,-1.046,-1.664,-1.8
-0.529,-23.224,2.871,-1.933,-0.639,-1.583
-1.64,-20.201,6.077,-3.717,1.041,-0.026
1.992,-3.474,4.64,-4.039,3.333,1.468
4.782,2.795,7.53,-3.487,2.228,1.433
5.199,12.44,4.239,-2.991,1.297,1.477
6.829,20.626,2.106,-1.799,-1.011,1.122
4.29,20.446,1.355,0.72,-4.503,-0.982
-5.003,1.323,2.274,1.861,-6.72,-2.793
-8.201,-4.677,-0.619,2.596,-3.516,-2.555
-5.603,-10.468,1.283,3.028,-1.16,-2.094
-3.515,-16.615,3.346,2.831,0.589,-1.705
-0.064,-19.05,0.958,2.02,2.221,-0.89
5.118,-14.513,1.107,1.24,2.629,-0.193
5.793,-12.536,1.197,0.342,0.909,-0.013
5.39,-14.309,1.756,-0.38,-0.474,-0.359
4.572,-17.269,2.066,-1.16,-1.658,-1.046
1.904,-20.767,3.199,-1.875,-1.61,-1.359
-1.473,-22.177,4.369,-2.898,-0.392,-0.953
-3.873,-12.896,7.675,-4.54,1.617,0.693
5.191,-1.645,7.361,-4.299,3.367,1.836
6.307,7.693,9.123,-3.606,2.311,1.509
6.316,17.256,4.234,-2.59,0.631,1.145
7.698,21.211,2.624,-0.931,-2.27,0.367
5.526,13.292,-0.548,1.755,-5.258,-1.713
-6.02,3.376,0.124,2.723,-6.065,-2.913
-7.102,-4.149,-2.011,3.306,-3.571,-1.917
-5.253,-11.653,2.382,3.494,-1.064,-1.118
-2.429,-15.317,3.542,3.096,1.144,-0.564
1.615,-16.377,3.023,2.189,2.355,0.067
3.164,-15.363,2.241,1.189,1.929,0.449
3.725,-14.638,2.459,0.417,1.01,0.14
4.147,-16.086,1.888,-0.397,-0.279,-0.554
2.494,-18.173,1.09,-1.356,-0.727,-1.179
0.376,-20.055,1.469,-2.432,-0.188,-1.26
-0.97,-18.996,3.182,-4.031,1.423,-0.574
-3.109,0.085,7.445,-5.67,3.341,0.931
5.097,8.736,11.669,-4.942,3.063,2.107
5.813,16.622,12.051,-3.704,1.301,1.482
5.45,23.083,8.565,-2.368,-0.955,1.035
5.25,25.774,6.491,-0.068,-3.871,-0.208
3.941,8.531,1.969,2.52,-7.257,-2.099
-6.398,1.196,-1.282,2.967,-5.992,-3.198
-6.154,-5.53,-1.822,3.19,-3.245,-2.127
-3.068,-11.615,1.965,3.294,-0.684,-1.59
-0.998,-15.158,2.339,2.706,0.66,-1.015
1.894,-15.434,2.254,1.908,2.401,-0.425
4.526,-13.813,1.941,1.067,1.719,-0.079
5.177,-13.93,3.473,0.327,0.34,-0.388
4.97,-17.194,4.243,-0.448,-1.014,-0.854
2.706,-20.748,5.046,-1.279,-1.309,-1.022
0.029,-20.95,5.02,-2.515,-0.509,-0.409
-2.87,-9.798,6.427,-4.234,1.462,1.246
-0.018,0.94,4.45,-4.272,3.586,2.007
3.533,9.136,6.173,-3.845,3.02,1.97
6.01,19.614,2.356,-2.997,1.545,1.803
6.261,24.736,3.041,-1.076,-1.103,0.151
4.084,14.389,2.057,1.638,-4.595,-1.889
-2.002,2.169,3.738,2.552,-5.939,-2.693
-5.504,-4.064,0.161,3.117,-3.967,-2.157
-5.689,-12.455,3.385,3.564,-1.806,-1.807
-2.043,-17.897,2.681,2.927,0.098,-0.729
2.315,-18.893,1.915,1.962,1.658,-0.363
4.899,-16.456,1.324,1.165,1.303,-0.248
4.555,-17.443,2.29,0.387,0.184,-0.8
4.087,-20.285,2.944,-0.61,-0.611,-1.065
-0.196,-20.57,3.088,-1.519,-0.604,-0.965
-3.375,-16.213,3.564,-3.269,1.328,0.218
-3.29,0.116,4.32,-4.228,3.027,1.33
4.945,10.229,6.702,-3.2,2.28,2.093
4.581,20.616,7.391,-1.985,0.913,1.293
3.376,23.037,8.035,-0.461,-0.997,0.549
2.729,17.38,7.39,1.836,-3.136,-0.89
2.243,-0.11,4.853,3.675,-3.136,-1.744
-2.762,-10.205,4.383,3.549,-0.589,-1.421
-1.276,-16.617,2.733,2.862,0.066,-0.267
1.061,-18.22,1.815,2.301,1.083,0.375
3.953,-16.333,1.835,1.814,1.987,0.749
4.578,-14.133,3.468,0.987,0.374,0.664
1.515,-11.417,1.075,0.232,-1.492,-0.187
1.315,-16.441,2.497,-0.069,-0.489,-0.68
2.359,-21.787,3.775,-1.037,-0.164,-1.077
0.341,-22.562,4.365,-2.309,-0.192,-0.851
-4.047,-12.221,6.363,-4.087,1.421,0.504
3.98,2.408,9.055,-3.613,3.485,1.716
5.733,16.521,11.769,-2.98,1.827,1.366
2.145,25.086,12.088,-1.129,0.485,0.472
0.461,22.73,12.481,0.814,-0.594,-0.119
4.215,8.293,9.6,3.324,-0.87,-1.241
-3.599,-8.152,7.331,3.612,-1.912,-2.008
-5.399,-18.276,3.734,3.609,0.022,-1.171
-1.419,-21.635,1.491,2.776,1.367,-0.013
2.334,-18.587,-0.309,2.082,2.087,0.349
2.197,-14.427,0.439,1.275,0.796,0.181
1.806,-11.969,0.3,0.39,0.164,-0.213
2.424,-15.892,1.596,-0.06,0.056,-0.779
2.771,-20.187,3.638,-0.655,-0.015,-1.263
1.147,-21.801,4.894,-1.759,-0.432,-1.07
-1.637,-17.986,5.741,-3.462,1.135,0.106
-0.047,-1.307,7.91,-4.149,2.81,1.682
4.509,11.36,8.912,-3.857,0.983,2.104
3.282,19.907,9.044,-2.711,-0.291,1.315
-1.447,21.012,9.752,-0.717,-1.744,0.755
0.023,14.569,10.133,1.655,-2.362,-0.35
-1.821,-2.957,5.894,3.044,-3.544,-1.732
-7.656,-11.879,3.786,3.434,-1.111,-1.595
-5.823,-16.555,2.191,3.006,0.447,-0.188
0.517,-15.96,0.496,2.285,2.039,0.229
1.332,-13.037,-0.865,1.742,1.017,0.273
0.756,-11.215,0.893,1.157,0.491,0.298
0.697,-10.336,0.733,0.475,-0.181,0.11
1.3,-15.102,2.348,0.012,-0.079,-0.362
1.797,-20.945,4.666,-1.024,-0.738,-1.108
-1.031,-23.064,5.405,-2.338,-0.763,-1.231
-3.478,-18.711,7.7,-4.063,0.946,-0.108
-0.108,-2.053,9.785,-4.744,2.677,1.754
3.28,11.428,12.656,-4.553,1.017,1.979
2.089,21.07,8.823,-3.118,0.084,1.657
0.555,24.674,8.992,-1.39,-1.744,1.26
-0.42,17.996,6.84,1.326,-3.956,0.111
-5.031,-0.971,4.534,3.15,-4.965,-1.611
-9.21,-11.043,-0.167,3.943,-2.582,-1.321
-8.107,-16.174,1.863,3.774,-0.899,-0.19
-4.403,-18.103,0.467,3.329,0.861,0.333
-0.989,-15.821,0.321,2.184,1.671,0.355
0.341,-12.722,0.725,0.914,1.053,0.111
0.758,-12.8,1.637,-0.055,0.378,-0.424
0.919,-17.209,2.197,-0.726,0.168,-1.08
-0.141,-21.476,2.907,-1.46,0.466,-1.422
-1.89,-21.029,3.937,-2.938,1.458,-0.782
-2.535,-3.717,7.166,-4.465,3.085,0.555
6.282,3.13,10.521,-4.04,2.415,1.788
5.91,15.079,10.223,-3.311,0.943,0.963
3.898,24.083,8.784,-2.004,-1.115,0.271
3.011,24.745,9.182,0.39,-3.706,-1.174
1.402,4.118,4.462,2.798,-5.192,-2.961
-6.65,-3.949,0.158,3.057,-2.738,-3.816
-4.204,-11.208,-0.077,2.749,-0.773,-2.388
-0.586,-15.762,1.028,2.195,0.662,-1.305
1.383,-16.704,-0.582,1.578,1.819,-0.42
2.661,-12.928,0.305,0.998,1.72,0.266
1.532,-10.704,0.891,0.503,0.242,0.207
1.148,-14.815,1.762,0.289,0.172,-0.231
1.86,-20.525,3.416,-0.31,0.095,-0.867
-0.021,-23.233,5.253,-1.66,0.231,-1.061
-2.429,-17.532,9.177,-3.488,1.816,0.094
2.159,-2.076,12.094,-3.933,3.294,1.62
6.733,10.439,15.98,-3.739,1.399,1.764
5.104,20.908,16.201,-2.599,0.041,0.777
2.143,24.72,16.195,-0.466,-1.744,0.574
2.604,15.062,12.877,2.277,-3.394,-0.681
-2.563,-2.029,8.372,3.549,-4.312,-2.148
-7.47,-11.362,3.573,3.889,-1.911,-1.821
-6.25,-16.983,1.452,3.441,-0.711,-0.426
-2.083,-17.939,-0.528,2.588,0.715,-0.141
-0.627,-13.717,-1.147,1.501,0.817,-0.001
-1.021,-10.548,0.214,0.418,-0.013,0.082
-2.382,-10.191,0.591,-0.263,-0.648,-0.12
-1.343,-13.964,3.025,-0.907,-0.347,-0.593
-0.695,-21.258,8.178,-1.975,-1.216,-1.46
-5.291,-24.701,13.31,-3.484,-1.811,-2.178
-8.143,-23.423,18.921,-5.033,-0.063,-1.682
-6.058,-4.539,21.41,-6.44,1.663,0.133
-0.125,11.053,27.278,-5.874,0.163,0.613
-2.379,23.389,22.936,-3.986,-0.395,-0.119
-2.073,27.201,16.935,-1.459,-1.744,0.316
-0.64,23.96,13.595,1.674,-3.646,0.139
-5.193,3.785,10.95,4.574,-5.485,-1.517
-12.905,-9.048,4.204,5.312,-2.37,-1.432
-9.374,-15.095,4.255,4.911,-0.244,0.132
-5.064,-16.612,5.602,4.291,1.387,0.367
-3.897,-15.092,2.899,3.063,1.614,0.176
-2.047,-12.387,2.165,1.792,1.802,0.269
-1.695,-10.411,0.806,0.952,0.58,0.302
-2.305,-10.047,-0.182,0.408,0.416,0.268
-1.251,-11.65,-0.41,-0.017,0.843,0.052
-0.052,-16.684,-0.286,-0.596,0.894,-0.391
-0.578,-21.831,1.038,-1.426,0.979,-1.034
-2.937,-23.658,2.502,-2.772,2.224,-0.653
-6.919,-5.948,6.361,-4.448,3.755,0.59
2.063,1.228,11.148,-3.785,2.74,1.613
2.459,12.668,12.074,-3.025,0.87,0.807
0.836,22.345,10.107,-1.76,-1.056,0.457
-0.262,24.965,10.367,0.362,-4.195,-0.886
2.093,4.096,5.244,2.865,-6.012,-2.44
-7.398,-3.865,-0.404,3.042,-4.582,-3.434
-7.971,-11.089,-2.022,3.027,-1.745,-2.347
-5.303,-15.731,-1.136,2.649,0.285,-1.463
-2.006,-15.822,-2.85,2.032,1.883,-0.42
-1.05,-11.85,-1.044,1.464,2.084,0.118
-1.134,-8.344,-0.541,0.917,1.43,0.482
-1.941,-8.028,0.29,0.686,0.456,0.631
-1.974,-8.933,0.279,0.592,0.322,0.607
-0.883,-12.732,0.414,0.251,0.82,0.333
0.012,-19.368,1.244,-0.421,0.763,-0.331
-1.373,-23.182,3.299,-1.707,1.33,-0.922
-3.018,-18.408,6.644,-3.547,2.959,-0.176
-0.652,-3.973,6.897,-4.52,4.556,1.193
4.667,5.278,13.85,-4.356,2.46,0.686
-1.046,15.054,11.635,-3.265,0.64,-0.457
-2.495,19.869,9.679,-1.728,-0.695,-0.561
-1.789,12.782,5.002,0.624,-2.709,-1.26
-5.354,-1.68,4.179,2.388,-4.073,-2.451
-11.355,-8.863,-2.818,2.881,-1.408,-1.544
-5.833,-12.476,-1.572,2.566,0.815,0.169
-3.137,-14.156,-1.064,2.441,1.57,0.712
-2.645,-11.514,0.174,2.015,1.66,0.568
-2.336,-10.422,0.514,1.335,1.376,0.418
-2.897,-9.293,0.174,0.87,0.482,0.117
-3.226,-9.899,0.155,0.465,0.209,-0.082
-2.541,-13.39,0.247,0.118,0.241,-0.5
-1.25,-18.597,1.322,-0.615,0.359,-1.28
-2.26,-22.374,3.269,-1.804,-0.039,-2.128
-4.532,-22.557,6.335,-3.219,0.839,-1.736
-7.151,-5.476,10.693,-4.853,2.382,-0.032
3.0,3.799,13.366,-4.784,1.574,0.797
2.063,14.868,14.601,-3.474,-0.112,0.166
-0.643,21.905,9.587,-2.089,-1.559,0.725
1.45,23.648,5.899,-0.125,-2.725,0.507
2.511,6.747,0.98,2.221,-5.473,-1.025
-10.307,0.92,-2.331,2.807,-4.905,-1.348
-10.785,-4.927,-4.699,2.52,-2.728,-0.014
-6.439,-7.667,-1.759,2.569,-0.591,0.103
-5.512,-8.909,-1.124,2.338,-0.124,-0.175
-4.055,-8.154,-1.474,1.942,0.885,-0.405
-2.001,-7.802,-1.99,1.522,1.128,-0.457
-1.984,-7.583,-2.325,1.138,0.576,-0.189
-3.015,-8.39,-2.072,0.789,0.051,0.229
-4.87,-9.775,-1.615,0.391,-0.315,0.471
-4.978,-12.846,0.519,-0.056,0.052,0.531
-4.581,-19.394,4.062,-0.445,-0.51,-0.389
-5.643,-25.025,7.173,-1.368,-1.106,-1.658
-7.673,-26.174,9.965,-2.66,-0.852,-2.151
-6.203,-21.12,14.768,-4.32,1.057,-0.65
-0.748,-6.603,13.194,-4.551,2.43,0.407
3.328,3.781,16.307,-4.365,1.152,0.312
-0.43,13.728,11.838,-3.249,0.123,-0.3
0.203,18.618,7.495,-1.531,-0.216,-0.783
0.215,15.357,2.547,0.95,-2.117,-2.448
-4.995,1.133,3.052,2.127,-4.115,-3.487
-9.224,-4.7,-3.765,2.476,-1.992,-2.567
-3.641,-10.45,-2.555,2.538,0.09,-0.914
-0.639,-14.577,-0.791,2.224,0.461,-0.001
-0.747,-15.729,-1.015,1.468,0.324,0.187
-1.384,-12.76,-1.483,0.771,0.654,0.32
-1.578,-10.83,-0.696,0.432,0.714,0.308
-0.805,-11.31,0.53,0.117,0.713,0.13
-0.109,-16.629,0.932,-0.223,0.573,-0.682
-0.063,-21.462,1.461,-0.834,0.978,-1.575
-0.052,-23.63,3.034,-2.036,1.825,-1.715
0.207,-16.783,6.475,-3.78,3.134,-0.421
6.889,-4.408,7.802,-4.103,4.545,1.067
8.252,5.932,12.407,-3.913,2.787,0.595
5.141,15.886,9.395,-3.315,0.927,0.439
4.243,20.751,7.158,-1.837,-1.131,0.197
2.462,14.085,3.347,0.723,-4.581,-1.17
-6.191,0.968,0.371,1.78,-6.447,-2.676
-8.54,-5.315,-5.674,2.374,-3.699,-1.788
-4.15,-10.808,-3.054,2.869,-0.9,-0.858
-1.302,-14.119,-1.791,2.878,-0.088,-0.346
-0.116,-14.695,-0.844,2.209,1.248,-0.262
2.087,-15.486,0.807,1.668,1.865,-0.288
3.201,-19.14,2.882,0.909,0.717,-0.702
1.684,-22.064,3.403,-0.232,-0.521,-1.192
-0.876,-22.032,3.612,-1.726,0.174,-1.035
-1.999,-13.738,5.343,-3.618,2.287,0.347
2.409,-0.605,8.439,-4.04,3.537,1.651
5.383,9.512,11.487,-3.817,1.936,1.605
2.7,16.548,8.772,-2.719,0.375,0.515
1.039,18.264,7.33,-0.931,-0.936,-0.337
2.003,7.7,4.121,1.497,-3.131,-1.635
-3.818,-3.548,0.059,2.41,-4.804,-2.59
-7.497,-9.952,-4.704,2.717,-2.369,-1.63
-3.649,-14.365,-2.641,2.537,-0.242,0.101
0.004,-16.516,-1.619,2.164,0.784,0.764
0.357,-13.958,-0.897,1.616,0.958,0.722
0.494,-13.035,-0.85,0.96,1.062,0.61
0.389,-12.158,-0.258,0.563,0.393,0.036
0.447,-12.787,-0.432,0.088,-0.091,-0.492
0.16,-13.738,-1.331,-0.58,-0.711,-1.139
-0.007,-14.998,-1.571,-1.419,-0.616,-1.606
-0.895,-20.735,-0.049,-2.102,-0.013,-1.701
-2.437,-18.09,0.512,-3.524,1.069,-0.799
-2.129,-0.863,2.257,-5.031,2.918,0.94
4.16,7.084,5.938,-4.174,2.911,1.602
5.71,14.738,7.154,-2.719,1.344,1.472
3.302,23.647,6.198,-1.179,-1.182,0.947
1.396,17.128,5.958,1.179,-2.619,0.269
0.737,-1.819,4.133,3.601,-3.566,-0.968
-4.763,-9.926,1.123,3.669,-2.266,-1.032
-4.237,-16.646,0.322,3.132,-0.58,-0.381
-0.55,-19.492,-0.41,2.258,0.717,0.245
2.109,-14.301,-0.766,1.423,0.961,0.285
2.113,-10.871,-0.48,0.767,0.149,0.075
2.09,-10.323,-0.754,0.314,-0.401,-0.292
2.184,-15.407,-0.614,0.378,0.059,-0.76
2.605,-20.506,0.883,-0.059,-0.124,-1.216
1.068,-21.344,0.564,-1.456,0.258,-0.683
-3.391,-6.946,3.119,-3.226,2.019,0.609
0.477,2.927,6.665,-3.119,3.553,1.41
2.685,13.526,8.414,-2.9,1.406,1.392
2.084,22.113,7.133,-1.774,0.293,1.116
1.044,23.847,6.417,0.16,-1.744,0.443
3.028,9.249,3.765,2.679,-4.049,-0.688
-2.938,-1.997,-0.238,3.262,-5.336,-1.064
-7.148,-9.753,-2.483,3.277,-3.125,-0.392
-7.016,-14.596,-2.658,2.769,-1.039,0.427
-3.651,-15.954,-1.747,2.298,0.873,0.492
-0.493,-15.86,-1.269,1.604,1.452,0.22
2.113,-13.883,0.048,0.893,0.796,-0.296
3.839,-13.358,0.479,0.344,-0.232,-1.027
4.369,-17.503,1.244,-0.029,-1.036,-1.598
3.137,-22.082,2.217,-0.617,-1.35,-1.924
0.265,-22.618,2.973,-1.985,-0.828,-0.977
-5.294,-9.439,5.827,-3.725,1.115,0.479
-1.974,2.08,9.559,-3.571,3.424,1.613
2.753,11.706,11.587,-3.038,2.143,1.742
2.647,20.553,11.243,-1.846,0.545,0.646
0.041,22.951,8.947,0.046,-1.709,-0.527
2.564,11.184,6.628,2.434,-3.612,-1.853
-2.553,-1.432,2.153,3.08,-4.774,-2.393
-7.242,-9.289,0.278,3.22,-2.256,-1.556
-5.357,-14.549,-1.154,2.62,-0.121,0.183
-0.27,-16.73,0.204,2.084,1.97,0.734
2.125,-17.396,-0.888,1.535,2.078,0.981
2.629,-13.923,-0.437,0.844,0.989,0.743
2.719,-10.518,-0.193,0.408,0.263,0.034
3.765,-12.4,1.573,0.345,-0.311,-0.74
4.382,-19.325,3.214,-0.141,-1.292,-1.532
1.776,-23.727,4.181,-1.1,-1.513,-1.628
-0.596,-21.287,6.148,-2.916,0.587,-0.055
0.614,-5.141,8.838,-4.3,2.288,1.913
6.701,3.021,12.062,-4.167,0.726,2.467
4.021,15.004,11.761,-2.976,-0.418,1.391
-0.441,19.217,9.663,-1.728,-1.895,0.981
-0.23,16.876,7.37,0.645,-3.25,-0.736
-2.653,-1.46,3.072,2.611,-4.024,-2.385
-10.384,-8.829,-1.037,2.981,-1.53,-2.032
-8.573,-14.847,-1.638,2.532,0.617,0.233
-1.937,-15.897,-0.314,2.304,2.576,0.932
0.716,-15.88,0.674,1.792,2.692,1.24
2.062,-12.675,1.688,1.283,1.734,0.994
2.894,-10.917,2.16,0.924,0.858,0.333
4.493,-15.357,1.926,0.87,-0.226,-0.766
4.146,-20.079,2.199,0.146,-1.532,-1.607
1.007,-24.096,1.858,-0.833,-2.003,-1.697
-0.534,-24.273,4.702,-2.666,-0.271,-0.149
-0.779,-6.29,6.021,-4.07,1.603,1.437
5.233,6.433,9.406,-3.704,1.557,2.474
6.224,16.567,11.045,-2.638,0.903,2.197
3.848,22.913,10.297,-1.268,-0.728,1.454
2.822,23.926,6.92,0.93,-2.756,-0.054
0.821,3.793,4.861,2.951,-4.509,-1.376
-8.062,-5.727,0.192,3.201,-3.601,-1.738
-9.437,-12.405,-1.586,3.453,-1.272,-0.75
-3.744,-16.029,-0.935,3.218,1.044,0.2
-1.364,-17.302,-0.064,2.821,1.713,0.336
0.592,-14.793,1.217,2.109,1.965,0.309
2.222,-12.343,2.302,1.249,1.633,0.093
3.47,-10.424,2.491,0.511,0.846,-0.2
4.602,-14.894,3.559,0.247,-0.581,-0.838
3.356,-19.827,3.892,-0.364,-2.09,-1.455
0.336,-23.768,3.729,-1.458,-2.506,-1.511
-1.919,-23.274,5.411,-3.062,-0.607,-0.181
-2.745,-5.612,8.735,-4.783,1.345,1.288
4.597,5.887,12.247,-3.944,1.827,2.554
6.348,14.864,14.986,-3.223,1.202,2.265
3.33,22.393,13.865,-1.895,-0.374,1.414
2.15,23.965,12.254,0.127,-2.72,-0.189
0.407,4.251,7.596,2.879,-4.847,-1.448
-9.376,-4.759,3.565,3.082,-4.214,-2.179
-11.099,-10.558,-1.147,3.435,-2.109,-1.135
-6.145,-15.039,-0.608,3.508,0.747,-0.056
-1.826,-17.279,-0.118,3.285,2.12,0.405
0.889,-15.02,1.196,2.353,2.43,0.275
1.626,-11.904,0.814,1.294,1.931,0.196
3.1,-11.461,2.604,0.779,1.473,-0.101
4.146,-13.897,3.474,0.118,-0.485,-0.685
1.727,-19.327,2.877,-0.653,-2.087,-1.287
-1.014,-23.165,3.604,-1.63,-1.782,-1.331
-2.231,-22.92,5.5,-3.237,0.095,-0.406
-3.037,-4.199,9.105,-5.051,1.941,1.064
4.003,3.923,13.564,-4.43,1.99,2.053
5.092,14.356,16.241,-3.749,1.073,1.062
-0.496,20.116,15.941,-1.998,-0.907,0.104
-2.197,20.663,14.994,0.108,-2.504,-1.82
-3.39,-1.631,10.13,2.612,-3.967,-3.736
-11.224,-9.764,4.697,2.79,-2.21,-4.473
-11.451,-15.297,1.409,2.906,0.363,-3.0
-3.273,-18.042,2.23,2.131,3.372,-1.811
1.748,-18.721,2.362,1.789,3.803,-0.876
3.674,-13.268,2.948,1.014,3.09,-0.504
5.273,-11.0,3.737,0.582,1.864,-0.509
5.745,-13.055,4.228,0.123,0.498,-0.68
5.03,-16.965,4.342,-0.394,-0.867,-0.968
1.204,-20.333,4.041,-1.461,-1.133,-0.883
-0.488,-20.261,5.474,-3.067,0.579,0.129
-5.59,-4.187,8.525,-4.936,2.594,1.479
-1.265,8.159,14.886,-4.727,4.879,2.056
2.854,17.207,16.412,-4.2,3.235,1.722
0.996,23.794,18.792,-1.748,1.286,0.107
-3.078,22.374,18.48,0.853,-0.94,-1.327
0.706,3.808,13.75,3.587,-2.388,-2.783
-3.552,-9.818,7.526,4.36,-3.9,-3.502
-7.254,-15.575,3.095,4.386,-1.862,-2.981
-3.762,-19.418,-0.185,2.818,0.716,-1.114
2.264,-18.186,-1.161,1.963,1.794,-0.344
1.979,-15.214,0.6,1.164,1.558,-0.299
2.921,-10.961,0.919,0.578,1.596,-0.091
5.093,-11.639,2.713,0.579,0.595,-0.085
5.633,-17.182,4.538,0.303,-1.383,-0.561
4.078,-21.494,5.533,-0.794,-1.421,-0.745
1.878,-21.404,6.919,-2.722,-0.788,-0.014
-6.314,-5.526,12.957,-4.654,0.686,1.35
0.156,7.644,18.332,-4.16,2.287,2.446
1.509,20.814,20.064,-3.46,1.687,1.871
-3.293,25.534,21.548,-1.192,-0.157,0.788
-3.983,23.902,19.46,1.258,-0.908,-0.222
2.813,5.119,11.186,3.529,-1.802,-1.655
-5.883,-7.374,4.82,3.548,-1.689,-2.797
-6.659,-15.872,1.325,3.594,0.58,-1.603
-1.354,-16.924,-1.334,2.455,2.36,-0.183
1.793,-14.391,-1.238,1.783,2.607,0.473
2.511,-11.519,0.979,1.281,1.906,0.535
3.397,-11.992,2.482,0.85,0.769,0.185
3.487,-14.852,2.765,0.713,-0.396,-0.513
4.465,-20.149,3.374,0.215,-0.954,-1.004
1.974,-22.727,4.584,-1.054,-0.491,-0.73
-1.327,-19.91,9.422,-2.823,1.105,0.063
-0.087,-0.666,11.293,-4.35,2.983,1.567
7.149,11.129,16.129,-4.537,1.878,2.346
0.462,20.852,24.096,-2.445,0.656,0.796
-2.003,21.673,23.089,-0.225,-0.382,0.027
1.525,12.956,17.358,2.547,-1.484,-0.2
-1.38,-7.305,14.942,4.866,-3.102,-1.423
-9.33,-15.902,9.622,5.11,-0.701,-2.098
-4.095,-20.738,0.885,3.559,1.288,-0.596
0.603,-18.739,0.334,2.739,2.281,0.008
-0.535,-12.459,0.929,1.965,1.482,-0.115
-0.171,-10.221,1.189,1.048,1.434,0.21
0.118,-11.285,3.104,0.609,0.624,0.211
1.528,-13.565,4.263,0.183,-0.522,0.002
1.938,-18.014,4.845,-0.311,-1.839,-0.565
1.325,-23.263,7.222,-1.532,-1.741,-1.105
-1.524,-24.932,10.203,-3.377,-0.567,-1.253
-8.932,-5.608,17.201,-5.04,1.334,0.071
-1.659,8.399,22.346,-4.614,1.825,1.733
-2.696,19.079,26.303,-3.447,0.787,0.889
-11.744,21.863,25.142,-1.102,-0.903,0.669
-9.682,19.853,20.595,1.55,-1.507,0.788
-3.165,0.804,10.236,4.45,-2.699,-0.373
-10.666,-11.962,4.67,4.848,-1.123,-1.533
-10.067,-18.91,-0.128,4.23,0.528,-0.319
-1.716,-17.489,-1.496,3.111,2.252,0.229
-1.389,-12.929,-0.587,2.385,1.961,0.23
-1.445,-11.16,1.11,1.302,1.365,0.237
-2.094,-9.695,0.741,0.694,0.181,0.088
-1.375,-10.156,1.835,0.415,0.505,-0.107
0.553,-12.364,2.538,0.139,0.08,-0.486
1.162,-16.578,3.03,-0.393,-0.591,-0.818
-0.118,-19.909,2.961,-1.484,-0.743,-0.822
-2.2,-19.207,4.381,-3.218,0.692,0.069
-7.507,-1.048,8.262,-4.91,2.212,0.857
1.268,9.722,11.029,-4.169,2.887,2.761
0.294,23.834,17.875,-3.054,1.451,1.678
-6.223,26.3,17.594,-0.936,-0.102,1.075
-4.433,22.521,16.835,1.556,-0.819,0.187
1.624,2.307,10.593,4.064,-2.005,-0.369
-6.288,-7.577,7.292,3.894,-1.581,-1.792
-5.35,-17.907,-0.422,3.351,0.24,-0.354
2.427,-17.104,0.035,2.365,2.056,0.315
2.86,-13.845,-0.281,1.72,1.309,0.3
1.631,-10.898,1.558,1.02,0.594,0.087
0.648,-9.661,2.24,0.546,-0.297,-0.27
1.411,-10.95,2.759,0.287,-0.951,-0.667
2.176,-13.871,3.042,-0.006,-1.61,-0.856
1.528,-16.723,1.876,-0.647,-1.827,-0.641
-0.454,-18.244,1.358,-2.062,-0.404,0.285
-2.208,-10.728,2.91,-3.883,1.582,1.303
-0.379,1.94,3.506,-4.441,3.907,2.349
3.556,11.656,5.219,-3.816,2.75,2.185
0.313,17.122,10.396,-1.53,1.269,0.581
-0.941,13.997,11.583,0.666,-0.504,-0.856
1.029,2.767,8.513,2.985,-1.561,-1.817
-1.023,-10.895,7.692,4.025,-2.527,-2.608
-4.601,-18.694,5.956,3.703,-0.466,-2.278
-1.137,-21.113,1.719,1.972,1.178,-0.778
1.594,-16.546,1.29,1.175,1.809,-0.181
1.431,-12.122,2.645,0.628,1.16,-0.176
1.494,-10.237,3.283,0.124,0.22,-0.393
2.116,-12.087,3.7,-0.186,-0.438,-0.639
2.7,-15.474,3.704,-0.64,-0.939,-0.736
2.265,-18.176,2.908,-1.649,-0.743,-0.368
0.067,-17.024,2.377,-3.125,0.488,0.574
-4.6,-0.258,3.604,-4.809,2.394,1.626
0.293,12.341,8.024,-4.2,4.196,2.856
2.737,23.662,11.697,-3.545,3.053,2.325
-2.745,27.418,14.057,-1.359,0.986,1.035
-2.193,22.496,13.745,0.78,0.03,-0.307
2.76,3.163,10.492,3.138,-1.258,-1.211
-3.095,-8.215,5.18,3.15,-2.18,-2.037
-5.577,-16.803,1.303,3.141,-0.286,-1.372
0.571,-18.179,-0.256,2.054,1.606,-0.394
1.883,-14.413,0.093,1.468,1.135,0.032
1.0,-11.565,1.908,0.916,0.59,-0.079
1.173,-11.294,2.518,0.446,-0.272,-0.457
1.413,-12.528,2.93,0.043,-0.858,-0.835
1.813,-15.018,2.226,-0.399,-1.431,-0.872
0.935,-18.529,1.343,-1.211,-0.968,-0.63
-1.02,-18.675,1.08,-2.537,0.596,0.158
-4.096,-6.35,3.017,-4.249,2.667,1.444
3.349,5.871,6.286,-3.579,4.15,2.66
3.28,15.724,9.508,-2.52,2.83,1.499
-1.433,17.845,11.739,-0.791,0.778,0.936
-0.283,14.818,12.388,1.309,-0.218,-0.079
2.338,1.235,8.121,3.537,-1.036,-1.314
-4.353,-10.716,4.494,3.475,-1.195,-2.216
-3.799,-17.794,1.53,2.966,0.641,-0.853
1.087,-16.249,0.39,2.114,2.521,-0.315
2.171,-12.304,-0.174,1.41,2.652,0.248
2.389,-10.53,2.596,0.995,1.573,0.457
1.497,-10.119,3.362,0.523,0.207,0.271
1.447,-11.915,3.884,0.142,-0.623,-0.306
3.197,-14.723,4.016,-0.231,-1.718,-0.747
2.398,-18.862,3.084,-0.88,-2.667,-0.673
-0.339,-19.108,1.75,-2.112,-1.232,0.174
-2.491,-9.761,4.289,-3.798,0.994,1.58
3.13,1.793,4.735,-3.721,3.48,2.614
4.821,11.333,5.785,-2.808,2.695,2.218
0.143,17.35,10.123,-0.826,1.286,0.643
-0.587,14.088,10.88,1.181,-0.055,-0.905
2.014,1.122,8.036,3.672,-0.704,-2.139
-3.541,-10.672,7.371,4.261,-1.627,-2.595
-5.565,-18.771,6.278,3.87,0.595,-1.748
-0.313,-21.484,2.906,2.472,2.383,-0.373
2.633,-17.213,2.934,1.616,2.538,0.236
2.162,-13.178,3.343,0.757,1.158,0.107
1.792,-11.938,3.76,0.034,-0.038,-0.328
1.827,-12.334,3.926,-0.531,-1.118,-0.816
1.837,-13.889,3.748,-0.839,-1.865,-0.993
1.13,-17.257,2.59,-1.46,-1.826,-0.538
-1.513,-17.204,1.686,-2.65,0.011,0.542
-5.723,0.974,4.744,-4.2,2.129,2.178
0.526,11.321,6.759,-3.364,2.095,2.9
-0.354,18.818,7.242,-2.072,1.054,1.962
-4.975,18.153,7.388,-0.613,-0.829,1.422
-3.851,15.078,8.164,1.448,-1.985,0.273
0.229,-4.142,4.41,3.807,-2.509,-1.058
-5.426,-14.058,2.475,3.745,-1.282,-1.191
-4.414,-20.297,2.3,2.947,0.474,0.002
1.207,-16.802,3.208,2.258,2.307,0.08
2.926,-13.859,3.353,1.558,1.668,0.13
3.131,-12.647,4.021,0.867,0.005,-0.207
1.987,-12.599,4.217,0.184,-1.141,-0.822
1.985,-13.701,4.409,-0.269,-1.808,-1.164
0.912,-15.525,3.482,-0.807,-2.325,-0.992
-1.122,-16.613,1.824,-1.662,-1.342,-0.397
-2.467,-15.006,1.485,-3.329,0.845,0.537
-3.482,3.482,1.962,-4.851,3.15,1.393
3.177,14.001,3.39,-3.946,2.428,1.763
1.901,19.967,6.571,-2.421,1.112,0.526
-1.822,16.026,6.961,-0.58,-1.359,-0.624
-2.117,10.875,6.701,1.989,-2.157,-1.502
0.174,-8.873,5.433,4.32,-2.362,-1.825
-5.579,-18.519,3.937,3.986,-0.907,-1.724
-3.736,-22.604,1.671,3.059,0.589,-0.469
1.192,-17.041,2.111,2.161,2.339,0.295
2.705,-13.457,2.569,1.431,1.266,0.372
1.867,-12.252,3.191,0.726,-0.671,-0.136
1.269,-13.744,3.69,0.197,-1.227,-0.746
1.628,-16.99,4.824,-0.421,-1.757,-1.095
0.162,-19.462,5.24,-1.56,-1.625,-0.912
-2.202,-19.252,6.278,-3.398,0.246,-0.366
-11.9,-14.892,-1.591,-0.875,0.305,0.266
-3.624,-8.359,0.316,-2.451,2.051,1.181
-6.818,7.331,7.394,-4.197,3.797,2.243
-1.406,11.752,10.947,-3.511,4.006,3.49
0.938,16.318,15.598,-3.119,2.259,3.187
-2.986,22.085,20.268,-0.831,0.21,1.614
-3.676,19.392,18.863,1.695,-1.625,0.239
-0.11,-2.589,12.161,4.247,-2.497,-0.784
-4.206,-11.447,8.17,4.052,-1.908,-1.818
-5.531,-18.505,3.327,3.813,-0.267,-1.426
0.717,-20.041,-0.088,2.197,1.461,-0.019
2.978,-16.615,0.617,1.368,1.35,0.469
2.551,-11.926,0.625,0.56,0.335,0.33
1.936,-10.611,0.992,0.076,-0.664,-0.17
2.18,-14.476,1.625,-0.2,-0.772,-0.829
2.381,-18.944,1.699,-0.748,-0.922,-1.138
1.083,-21.551,2.485,-1.982,-0.005,-0.864
-1.51,-14.357,6.8,-3.727,1.882,0.309
0.388,-1.907,7.781,-4.254,3.83,0.709
4.944,10.419,10.786,-3.468,2.297,1.178
-1.336,18.381,15.924,-1.269,0.719,-0.375
-3.708,19.401,15.115,1.071,-0.544,-1.343
-1.075,5.826,9.292,3.451,-1.349,-2.441
-3.912,-7.678,7.005,4.629,-2.152,-2.51
-7.972,-16.233,4.087,4.313,0.563,-2.063
-1.128,-19.692,-1.073,2.816,2.265,-0.157
2.64,-17.998,-1.134,1.869,2.678,0.556
2.583,-11.426,0.557,1.301,1.682,0.516
3.619,-9.377,2.475,0.744,0.575,0.227
3.106,-11.607,2.147,0.542,-0.731,-0.68
3.747,-18.438,3.051,0.082,-1.074,-1.104
2.072,-22.679,2.653,-1.299,-0.376,-0.793
0.402,-17.392,5.564,-3.111,1.426,0.49
-0.29,-5.794,6.22,-3.879,3.336,0.473
3.531,3.214,8.334,-2.966,1.927,2.0
0.291,14.93,10.182,-1.958,0.569,0.875
-3.185,18.203,12.036,0.524,-1.744,-0.215
-3.573,7.871,8.339,3.187,-3.054,-1.824
-2.858,-7.505,6.909,4.668,-3.76,-1.495
-5.383,-15.508,4.793,3.978,-1.389,-2.413
-2.636,-21.174,2.0,3.313,0.337,-1.079
3.034,-20.409,0.499,2.07,1.953,-0.48
5.772,-15.499,1.085,1.089,1.276,-0.423
7.411,-14.081,2.88,0.354,-0.093,-1.166
6.235,-17.417,4.189,-0.154,-1.828,-1.715
4.676,-21.035,4.742,-1.21,-1.659,-1.242
2.384,-21.127,6.765,-2.923,-0.175,0.076
-1.403,-3.891,10.498,-4.605,1.812,1.654
1.11,6.251,13.685,-4.129,2.211,3.753
2.473,16.338,14.59,-3.651,1.575,3.823
-1.448,23.75,17.323,-0.876,-0.321,1.948
-3.01,24.131,15.606,1.882,-2.169,0.334
-1.019,-0.067,12.001,4.593,-3.3,-0.458
-5.692,-11.309,7.697,4.848,-3.133,-1.415
-7.322,-18.124,5.5,4.898,-0.983,-0.891
-1.98,-21.825,2.028,3.28,0.924,0.434
2.3,-22.306,1.486,2.268,1.37,0.716
4.348,-15.787,1.219,1.182,0.528,0.119
5.235,-13.844,1.189,0.298,-0.122,-0.618
5.475,-16.62,1.299,-0.155,-1.091,-1.311
3.929,-20.45,3.55,-1.036,-1.317,-1.112
0.729,-21.363,6.846,-2.782,-0.059,-0.653
-2.784,-3.684,12.691,-4.407,1.914,0.649
0.959,5.673,14.769,-3.985,1.884,1.537
-0.227,16.459,16.734,-3.027,0.704,1.629
-3.654,21.985,17.933,-0.649,-0.978,0.811
-4.124,20.74,14.629,2.246,-2.659,-0.134
-2.072,-0.088,7.485,4.838,-3.109,-1.18
-6.782,-10.223,5.012,5.25,-1.353,-1.271
-5.708,-17.909,3.79,4.59,0.931,-0.436
-0.866,-19.306,0.771,2.899,2.567,0.277
2.503,-16.79,1.206,1.648,2.899,0.758
3.183,-13.012,2.681,0.742,1.34,0.438
3.735,-10.43,3.53,-0.086,-0.493,-0.393
3.242,-13.073,3.687,-0.216,-1.992,-1.302
2.406,-18.101,3.52,-0.55,-2.708,-1.557
-0.781,-21.302,3.174,-1.285,-2.1,-1.02
-3.107,-20.408,6.112,-2.971,-0.091,0.202
-5.016,-4.116,9.896,-4.647,2.173,1.061
1.242,5.711,11.339,-4.093,2.714,2.815
2.85,17.992,13.92,-3.372,1.793,2.607
0.77,22.557,14.698,-1.267,-0.419,1.519
-0.732,19.561,12.304,1.632,-2.574,0.234
0.152,-1.75,7.883,4.075,-3.263,-0.208
-6.178,-8.922,4.562,4.052,-2.342,-1.424
-6.508,-16.51,1.746,4.071,-0.425,-1.017
-1.341,-17.886,0.346,2.857,1.266,-0.349
2.153,-15.912,-0.727,1.688,1.673,0.001
2.219,-10.559,-0.852,0.967,0.426,-0.046
1.703,-8.944,0.321,0.327,-0.241,-0.116
1.665,-9.866,0.546,-0.0,-0.848,-0.433
2.036,-13.407,1.979,-0.088,-1.207,-0.908
1.923,-18.463,2.462,-0.443,-2.002,-1.223
-0.258,-21.705,2.7,-1.165,-1.55,-0.997
-2.493,-20.496,3.406,-2.864,0.364,0.377
-4.789,-1.604,9.292,-4.623,2.545,2.001
1.474,8.759,11.881,-3.762,2.62,3.299
3.041,20.117,14.032,-2.91,1.67,3.002
-0.779,24.686,16.247,-0.629,-0.338,1.762
-1.394,20.162,16.635,2.068,-1.758,0.263
0.365,-2.781,10.395,4.578,-2.35,-0.617
-5.564,-12.316,6.84,4.316,-1.247,-1.332
-5.516,-19.563,4.236,4.021,0.328,-0.861
0.252,-20.796,1.299,2.489,1.527,-0.009
2.135,-16.632,-0.143,1.432,1.041,0.182
2.063,-10.872,0.572,0.629,-0.167,-0.317
2.085,-10.226,1.191,0.084,-1.146,-0.676
2.183,-14.732,2.161,-0.312,-1.329,-1.145
1.192,-19.667,3.197,-1.021,-1.413,-1.273
-0.589,-21.783,3.669,-2.392,-0.167,-0.453
-5.566,-10.056,7.956,-4.097,1.633,0.901
-3.987,3.549,9.156,-4.618,3.595,1.735
-0.038,16.595,12.946,-4.098,2.204,2.397
-2.449,24.635,15.665,-2.08,1.089,1.105
-5.302,23.805,15.655,0.161,-1.282,-0.074
-1.893,6.778,8.582,2.608,-2.165,-1.152
-4.226,-8.353,6.581,3.994,-2.778,-1.394
-7.754,-18.06,2.605,4.045,-0.552,-1.314
-4.006,-21.515,-1.1,2.756,0.918,0.189
1.468,-18.837,-1.361,1.965,2.272,0.536
3.261,-13.403,1.598,1.252,1.231,0.34
3.137,-10.272,2.286,0.342,-0.475,-0.176
1.888,-10.485,1.567,-0.068,-1.591,-0.759
1.96,-14.077,2.42,-0.303,-2.049,-1.221
0.737,-18.27,0.948,-0.914,-2.238,-1.107
-2.384,-19.922,0.747,-1.854,-0.709,-0.474
-4.467,-15.107,3.477,-3.576,1.61,0.485
-4.361,1.802,5.376,-4.497,3.992,1.352
2.831,13.027,7.168,-3.571,2.98,2.153
2.014,20.925,12.736,-1.772,1.353,0.668
-2.016,18.709,11.018,0.359,-1.744,-0.151
-0.451,9.155,7.444,3.051,-2.479,-0.526
-0.88,-8.817,5.144,4.735,-3.423,-0.608
-7.455,-17.777,3.943,4.457,-1.545,-0.748
-5.405,-22.151,-0.473,3.422,-0.097,0.599
1.214,-18.64,0.951,2.337,1.371,0.743
1.76,-13.696,1.318,1.4,0.185,0.18
2.005,-11.286,2.063,0.64,-1.025,-0.565
1.884,-11.442,0.838,0.135,-1.77,-1.202
1.774,-14.135,0.8,-0.148,-2.21,-1.546
1.137,-17.774,-0.264,-0.72,-1.998,-1.251
-1.447,-19.659,-0.033,-1.836,-0.713,-0.378
-5.068,-14.63,3.337,-3.537,1.442,0.695
-6.737,-2.187,5.031,-4.511,3.801,1.211
-2.584,9.034,5.449,-3.281,2.793,2.054
-4.715,16.26,9.908,-1.27,1.113,0.942
-8.092,10.982,9.202,1.163,-1.744,-0.253
-5.052,2.163,3.314,3.737,-2.159,-0.963
-1.111,-11.614,2.807,5.539,-2.159,-0.624
-3.358,-20.405,3.148,4.565,-0.445,-0.814
-1.14,-23.675,-0.201,3.029,0.678,0.17
4.142,-16.166,0.545,1.727,2.353,0.713
4.346,-11.408,3.072,0.922,0.775,0.591
1.96,-8.934,1.873,0.127,-1.35,-0.046
0.528,-12.995,1.076,-0.051,-1.549,-0.659
2.194,-19.664,2.28,-0.501,-1.264,-1.166
-0.486,-23.282,3.337,-1.651,-1.55,-1.408
-3.226,-21.864,5.476,-3.421,0.434,-0.506
-4.417,-4.071,10.489,-5.13,2.559,1.05
0.927,6.657,13.158,-4.733,1.6,1.702
-1.105,19.332,14.258,-3.215,0.192,1.12
-4.558,22.678,14.815,-0.712,-1.196,0.898
-4.099,16.122,13.988,2.028,-2.49,-0.182
-3.35,-3.542,6.607,4.692,-3.225,-1.551
-7.723,-12.795,5.508,5.004,-0.529,-1.546
-5.432,-19.827,3.781,3.906,1.122,-0.342
0.25,-19.562,2.22,2.435,2.526,0.041
2.414,-14.243,1.486,1.422,2.385,0.292
3.417,-12.238,4.747,0.51,1.272,0.23
2.532,-10.065,3.707,-0.203,-0.685,-0.306
1.88,-13.262,2.927,-0.252,-0.735,-0.84
3.213,-17.59,3.336,-0.805,-0.53,-0.986
1.482,-19.907,2.865,-1.968,-0.549,-0.82
-1.063,-18.028,4.357,-3.722,0.996,-0.004
-2.566,-1.412,5.794,-5.426,3.193,1.169
3.572,9.01,9.372,-4.845,1.76,2.312
1.332,18.774,11.794,-2.551,0.151,1.335
-1.777,20.013,12.25,-0.212,-1.879,0.887
-1.733,14.876,8.668,2.223,-3.106,0.04
0.098,-4.095,5.444,4.655,-4.23,-0.871
-6.062,-12.624,1.457,4.561,-2.217,-1.362
-4.448,-18.954,-1.974,3.134,-0.57,0.042
-0.25,-18.498,-2.77,2.123,1.517,0.486
1.199,-14.778,-1.396,1.525,1.545,0.745
0.101,-11.557,0.043,0.906,0.951,0.752
-0.748,-10.021,0.586,0.549,0.511,0.362
-0.186,-11.274,0.999,0.297,0.606,-0.132
0.776,-15.273,1.408,-0.148,-0.055,-0.73
0.195,-19.07,1.262,-1.021,-0.458,-1.214
-0.94,-19.877,1.692,-2.492,0.258,-0.992
-2.802,-10.192,2.714,-4.288,2.008,0.181
-2.364,1.657,4.541,-4.8,3.759,0.794
3.145,11.261,7.318,-3.684,2.332,1.46
2.157,19.859,8.797,-1.794,0.746,0.604
-1.177,21.865,7.289,0.449,-1.744,0.13
-0.715,8.762,5.639,2.882,-3.059,-0.682
-1.309,-4.349,2.166,4.178,-4.244,-0.651
-6.409,-12.134,-0.396,3.892,-1.879,-0.49
-4.341,-17.803,-1.796,2.973,-0.102,0.789
-0.056,-19.014,-0.919,2.288,1.591,1.152
1.434,-14.969,-0.302,1.668,1.221,0.982
1.166,-12.027,1.427,0.911,0.519,0.567
0.547,-10.14,0.806,0.368,-0.324,0.057
0.454,-10.991,1.244,0.088,-0.571,-0.223
1.197,-14.92,1.716,-0.278,-1.012,-0.684
0.342,-20.046,1.904,-1.03,-1.666,-1.001
-2.271,-21.047,1.756,-2.246,-1.034,-0.648
-6.75,-8.034,4.038,-3.98,0.937,0.693
-2.013,4.699,7.116,-3.477,2.9,1.266
2.217,14.962,10.763,-2.96,1.648,1.083
-2.056,21.883,11.582,-0.902,0.492,-0.315
-2.609,20.399,10.566,0.947,-0.117,-0.963
3.155,2.906,7.323,3.229,-0.557,-2.001
-0.709,-10.523,3.292,3.352,-1.631,-2.188
-4.061,-18.145,-0.441,3.338,0.649,-1.456
1.738,-20.46,-1.514,2.149,2.41,0.377
5.023,-18.039,-0.516,1.585,2.369,0.774
3.587,-12.682,0.4,1.066,1.025,0.612
2.84,-10.429,1.38,0.532,0.308,0.341
2.706,-9.897,1.455,0.211,-0.347,-0.085
3.277,-14.395,1.932,0.035,-0.804,-0.739
3.269,-18.884,2.246,-0.37,-1.234,-1.141
1.996,-22.692,2.55,-1.419,-1.42,-0.981
-1.093,-19.485,1.645,-3.036,-0.297,0.168
-5.61,-4.856,3.28,-4.752,1.57,1.371
1.002,7.169,6.375,-3.376,1.728,3.248
0.798,18.263,7.724,-2.445,0.572,2.699
-2.839,22.828,7.518,-0.507,-0.951,2.764
-2.305,17.082,7.415,1.794,-1.612,2.029
1.82,0.501,4.893,4.189,-2.477,1.675
-5.321,-8.31,0.624,3.349,-2.023,0.441
-5.277,-16.253,-1.163,3.232,0.048,1.517
-0.189,-18.028,-1.492,2.655,1.45,1.514
1.661,-15.601,-0.726,2.138,0.567,1.318
1.358,-12.534,0.052,1.491,-0.624,0.749
0.957,-11.704,1.36,0.851,-1.185,0.46
1.405,-15.723,1.855,0.342,-2.019,-0.074
1.01,-22.819,3.061,-0.575,-2.173,-0.965
-2.252,-25.919,3.924,-1.692,-1.829,-1.29
-6.506,-25.517,7.113,-3.441,0.135,-0.514
-10.677,-8.139,10.437,-5.09,2.273,0.63
-4.498,1.845,12.953,-4.063,2.121,2.351
-3.496,14.865,15.645,-3.13,0.873,2.492
-6.018,21.011,14.354,-1.332,-0.751,2.195
-5.812,19.605,11.771,0.925,-1.907,1.758
-1.909,-1.661,6.342,3.469,-3.332,1.502
-8.443,-9.572,2.822,3.341,-2.869,0.146
-8.193,-16.36,-1.491,3.526,-0.381,0.33
-1.043,-20.965,-0.899,3.035,1.359,0.811
2.642,-20.705,-1.794,2.624,0.108,0.465
2.674,-15.547,-0.049,1.664,-0.549,-0.333
3.131,-12.045,1.106,0.516,-0.65,-0.399
3.026,-16.484,2.548,-0.258,-1.813,-0.354
1.841,-21.026,3.937,-1.324,-2.477,-0.8
-0.724,-22.869,4.822,-2.475,-1.849,-0.888
-2.536,-22.018,6.509,-3.929,-0.112,0.153
-6.772,-4.687,8.086,-5.298,1.934,1.358
-0.286,9.733,13.474,-4.24,1.379,3.181
1.15,20.461,14.965,-3.32,0.304,2.567
-2.295,24.998,13.576,-1.345,-1.318,1.555
-3.299,23.742,12.426,0.963,-2.748,0.313
-0.374,1.631,9.319,3.529,-4.055,-0.462
-8.477,-9.372,3.209,3.574,-2.553,-1.81
-9.465,-15.353,0.527,3.785,0.579,-0.657
-2.274,-19.07,1.705,3.245,2.805,0.44
1.46,-19.316,0.843,2.703,2.361,0.712
2.849,-16.714,2.107,1.718,1.157,0.299
4.091,-17.918,2.554,0.719,0.038,-0.114
3.336,-21.981,3.073,-0.216,-1.378,-0.731
1.055,-24.554,4.453,-1.704,-0.718,-0.53
-2.095,-21.64,7.153,-3.6,1.416,0.421
-3.537,-7.226,8.874,-4.536,3.927,0.652
1.788,3.833,11.797,-2.936,2.774,1.601
-1.085,12.773,15.812,-1.728,1.057,0.409
-6.568,14.307,13.16,0.282,-1.435,-0.293
-5.243,8.335,10.96,2.839,-2.567,-0.92
-4.549,-5.494,7.986,4.609,-3.89,-1.12
-11.063,-13.624,4.676,3.535,-1.188,-1.855
-7.232,-17.223,-0.416,3.153,1.22,-0.086
-0.031,-15.678,0.656,2.562,2.576,0.193
1.593,-14.406,-0.022,1.78,1.512,-0.401
1.79,-14.059,0.103,0.812,0.503,-0.695
2.898,-16.674,0.924,0.066,-0.567,-1.007
1.867,-21.296,3.892,-0.842,-0.859,-1.238
-0.47,-22.525,6.326,-2.813,0.113,-0.776
-6.645,-6.487,11.084,-4.588,2.394,0.431
-3.234,3.939,17.436,-4.977,4.726,1.397
1.29,11.876,20.931,-4.583,3.093,1.212
-7.521,20.185,24.634,-2.244,0.978,-0.326
-8.82,21.134,23.341,-0.076,0.871,-1.029
-3.495,3.01,17.346,2.278,-0.241,-1.476
-7.095,-8.949,11.629,3.457,-2.043,-1.855
-11.949,-16.319,6.085,3.723,0.053,-1.486
-1.798,-22.913,-0.909,1.849,2.205,-0.323
1.474,-25.091,-1.896,0.911,1.279,-0.507
1.057,-23.205,0.81,-0.382,0.666,-1.455
-0.63,-21.291,1.319,-2.027,1.425,-1.414
-2.516,-15.316,5.096,-4.071,2.822,-0.258
-3.989,0.048,6.303,-4.9,4.162,1.166
2.701,8.211,8.002,-3.445,3.011,2.827
4.601,15.575,9.653,-2.387,1.243,2.553
2.37,18.654,8.253,-0.402,-1.206,1.146
1.563,16.59,4.366,2.083,-3.339,0.149
0.44,2.838,3.043,3.915,-5.283,-0.186
-8.158,-3.56,0.716,3.619,-4.157,-0.907
-10.643,-9.989,-2.234,3.813,-2.338,-0.006
-7.076,-13.426,-1.069,3.273,-0.518,1.212
-4.995,-15.013,0.151,2.765,-0.104,1.138
-3.471,-14.119,0.787,2.025,0.121,0.428
-1.803,-13.23,0.956,1.297,0.101,-0.257
-0.688,-14.712,1.774,0.682,-0.138,-0.857
0.697,-17.443,2.225,-0.201,-0.448,-1.452
0.164,-19.387,3.462,-1.334,-1.044,-1.69
-2.035,-19.546,3.917,-2.736,-0.31,-0.929
-5.481,-10.995,6.525,-4.486,1.539,0.548
-3.01,2.037,9.278,-5.109,3.45,1.833
0.852,11.638,11.406,-4.247,1.941,2.109
1.028,17.937,11.847,-2.704,0.763,1.281
-1.947,18.277,12.171,-0.51,-1.744,0.52
-1.117,7.967,8.465,1.744,-3.133,-0.652
-4.161,-4.285,4.005,3.071,-4.154,-1.567
-8.47,-11.601,1.738,3.197,-1.8,-1.221
-7.392,-16.008,-0.037,2.796,0.039,0.03
-2.243,-15.665,-1.122,2.094,1.816,0.335
0.456,-13.339,-0.092,1.757,1.662,0.455
1.024,-12.188,0.717,1.22,0.897,0.447
1.029,-13.536,0.473,0.772,0.241,-0.016
1.153,-17.09,1.391,0.163,-0.244,-0.594
-0.198,-20.349,2.69,-0.819,-0.948,-1.094
-3.055,-21.325,3.365,-2.091,-0.577,-0.924
-4.932,-17.161,5.315,-3.902,1.208,0.156
-6.484,-0.856,5.28,-5.158,3.003,1.307
0.557,9.079,7.106,-3.672,1.76,2.577
1.843,17.828,8.085,-2.331,0.688,1.692
-0.861,20.029,6.757,-0.506,-1.633,0.755
-1.107,16.1,4.285,1.599,-3.286,-0.352
-0.672,0.103,3.182,3.495,-4.397,-1.007
-8.24,-8.319,-0.077,2.887,-2.358,-1.31
-8.269,-14.749,-2.918,2.626,-0.31,0.183
-2.647,-15.895,-2.357,2.143,1.929,0.936
-0.038,-15.347,-1.242,1.956,2.029,0.937
0.887,-13.059,-0.049,1.427,1.178,0.561
1.338,-11.563,0.785,0.861,0.583,-0.266
2.582,-16.001,2.443,0.417,-0.188,-1.059
1.735,-20.541,3.649,-0.575,-1.492,-1.918
-1.198,-23.334,3.768,-1.82,-1.97,-2.055
-3.491,-22.767,5.185,-3.448,-0.097,-1.063
-7.659,-5.098,9.321,-5.138,1.841,0.494
0.76,9.209,13.206,-4.614,2.151,2.096
2.446,21.921,14.339,-3.4,1.216,1.822
-1.237,27.828,13.124,-1.558,-0.245,1.309
-1.904,25.754,11.441,0.67,-1.756,0.46
0.969,6.487,6.259,3.46,-3.006,-0.485
-8.106,-4.789,1.799,3.889,-1.921,-1.119
-8.851,-14.379,-0.53,3.911,0.325,0.015
-2.424,-18.413,0.388,3.373,2.194,0.809
0.57,-17.043,0.546,2.704,1.824,0.848
1.691,-14.253,1.387,1.613,1.093,0.488
1.484,-11.686,0.939,0.631,-0.198,0.037
0.958,-10.812,1.26,0.041,-1.017,-0.134
1.206,-13.366,1.408,-0.449,-1.526,-0.623
0.169,-17.963,2.895,-1.117,-2.111,-1.295
-2.328,-20.796,3.803,-2.053,-2.083,-1.436
-5.291,-20.435,5.326,-3.511,-0.41,-0.658
-8.967,-4.623,8.225,-5.152,1.654,0.291
0.815,6.254,11.726,-4.019,1.643,2.3
2.435,18.711,13.892,-3.19,0.703,1.953
-1.572,24.298,12.732,-1.426,-0.835,1.441
-2.325,23.445,11.608,0.718,-2.009,0.596
0.568,5.74,7.528,3.199,-2.793,-0.211
-9.32,-3.209,4.151,2.946,-1.418,-1.478
-9.774,-12.018,0.904,3.213,1.082,-0.12
-2.774,-16.3,1.542,2.79,3.063,0.89
1.274,-16.488,0.928,2.392,2.755,1.073
2.601,-14.234,1.674,1.658,1.784,0.985
2.526,-12.38,1.452,0.934,0.75,0.534
2.839,-11.578,1.703,0.331,-0.289,-0.114
3.361,-13.869,1.676,-0.15,-1.246,-0.908
2.408,-18.092,1.362,-0.887,-1.934,-1.441
0.183,-20.497,1.287,-1.91,-1.493,-1.227
-2.248,-19.22,2.297,-3.606,0.269,-0.239
-5.283,-4.334,3.261,-5.26,2.301,0.978
1.461,6.833,6.05,-4.308,2.438,2.649
3.639,17.652,9.4,-3.201,1.553,2.472
0.811,23.477,8.927,-1.342,-0.624,1.134
-1.144,20.118,7.322,1.116,-2.87,0.289
-0.339,2.601,4.551,3.684,-4.008,-0.246
-7.995,-7.929,2.079,3.547,-2.698,-0.787
-8.883,-15.287,-0.605,3.344,-0.838,0.19
-3.913,-18.974,-0.097,2.68,1.124,1.504
0.745,-17.33,-0.089,2.044,1.603,1.409
2.485,-14.643,0.942,1.233,0.851,0.9
2.579,-13.355,0.572,0.494,-0.258,-0.088
1.614,-16.066,0.652,-0.127,-1.026,-1.062
-0.092,-19.634,1.469,-0.988,-2.093,-1.858
-3.441,-21.178,2.139,-1.979,-1.835,-1.744
-6.186,-17.519,3.45,-3.514,0.055,-0.498
-7.394,-2.054,5.51,-5.213,2.186,1.008
-0.156,8.36,8.281,-4.088,1.699,2.256
0.3,18.909,9.592,-2.542,0.804,1.293
-3.197,19.517,9.059,-0.615,-1.14,0.577
-1.867,12.827,6.762,1.384,-2.032,-0.673
-0.702,-3.039,3.689,3.706,-2.61,-1.738
-6.016,-11.118,1.874,3.306,-0.214,-1.954
-3.873,-17.566,0.346,2.563,1.545,-0.233
2.438,-16.195,0.949,1.687,3.309,0.553
4.552,-11.934,2.426,1.353,2.611,0.898
4.661,-9.821,3.127,0.971,1.017,0.832
2.934,-9.842,2.588,0.677,-0.625,0.362
2.179,-13.766,2.465,0.454,-1.34,0.078
2.188,-19.09,2.72,-0.251,-2.003,-0.497
0.32,-23.393,2.965,-1.42,-2.022,-0.939
-1.97,-23.734,4.478,-3.163,-0.596,-0.379
-7.014,-5.168,10.406,-5.023,1.537,1.125
-1.351,8.469,12.678,-4.89,3.911,1.564
1.008,20.387,14.264,-4.093,2.81,0.999
-4.125,26.048,12.843,-1.717,0.927,-0.09
-5.008,23.647,10.87,0.522,0.074,-1.328
0.246,5.147,3.351,2.646,-0.615,-3.11
-5.374,-4.867,0.973,3.031,-1.064,-3.522
-5.781,-11.964,-0.606,3.169,1.649,-2.082
0.939,-13.553,1.148,2.044,3.431,-0.238
3.412,-10.505,2.172,1.513,3.163,0.911
3.862,-10.572,3.557,1.336,1.869,1.503
4.141,-17.023,3.594,1.012,-0.114,1.364
2.834,-22.588,3.85,0.022,-1.57,0.136
0.91,-26.738,6.353,-1.402,-2.305,-1.044
-1.773,-27.628,8.865,-3.308,-1.269,-1.218
-8.292,-9.383,14.689,-5.254,0.714,-0.181
1.716,8.372,19.522,-5.178,2.118,1.778
2.496,22.834,21.509,-4.349,0.862,1.537
-1.898,28.695,17.046,-2.233,-0.185,1.384
-1.393,29.57,14.716,0.331,-0.985,0.828
4.018,9.514,7.545,2.886,-1.99,-0.238
-6.708,-3.955,3.312,3.493,-1.906,-1.699
-7.15,-14.116,0.997,3.69,0.485,-0.425
-0.808,-16.961,1.924,3.008,2.503,0.466
2.339,-16.892,1.553,2.323,2.43,0.797
2.551,-13.246,3.046,1.477,1.465,0.785
2.107,-10.78,2.682,0.617,0.48,0.759
1.303,-11.945,2.28,-0.029,-0.357,0.46
0.542,-17.025,3.071,-0.848,-1.47,-0.158
-1.382,-20.887,3.75,-2.12,-1.883,-0.934
-3.58,-22.479,4.427,-3.573,-0.665,-1.078
-5.259,-16.13,7.471,-5.23,1.339,0.03
-1.308,-1.781,9.079,-5.355,3.278,1.441
2.573,9.89,12.803,-4.71,2.373,1.23
-0.744,17.039,13.823,-2.422,0.997,0.172
-2.118,19.257,11.28,-0.629,-0.651,-0.264
-2.149,11.556,5.705,1.8,-2.213,-1.416
-7.167,-2.418,3.1,2.804,-3.594,-2.383
-12.08,-9.557,-1.027,3.356,-1.479,-1.299
-7.197,-13.829,-2.072,2.643,1.267,0.674
-1.712,-15.004,0.246,2.724,2.766,1.289
1.464,-14.044,2.91,2.163,2.294,1.059
2.751,-15.02,3.636,1.511,1.136,0.22
3.849,-18.073,2.771,0.529,-0.225,-0.759
2.355,-21.563,0.384,-1.057,-1.859,-1.518
-2.629,-23.543,0.209,-2.617,-1.488,-1.477
-4.364,-19.891,3.832,-4.485,0.546,0.009
-2.275,-2.276,5.597,-5.612,3.085,2.044
3.526,8.915,9.949,-4.82,2.331,2.583
1.813,18.406,12.426,-2.542,1.219,1.368
1.706,21.135,9.5,-0.729,-1.351,0.647
1.046,16.563,4.907,1.791,-3.085,-0.749
-2.278,0.837,3.108,3.82,-4.429,-2.008
-8.015,-6.779,0.844,4.237,-2.043,-1.38
-4.953,-12.753,0.982,3.681,0.269,1.037
-1.979,-13.253,3.661,3.435,1.784,2.066
-0.984,-13.285,4.653,2.97,1.866,2.416
-0.642,-14.473,4.388,2.142,1.152,2.27
-1.125,-20.093,2.643,0.801,-0.137,1.371
-3.333,-26.936,2.185,-0.946,-1.363,-0.294
-6.774,-31.291,4.665,-2.721,-1.21,-1.865
-9.493,-25.268,7.716,-4.449,0.441,-1.391
-5.458,-5.303,11.338,-5.31,2.5,0.176
-2.468,9.052,11.106,-4.58,1.403,-0.533
-4.237,19.521,8.508,-2.754,0.316,-0.436
-3.953,23.26,4.283,-0.765,-0.554,0.156
-2.797,17.686,-0.215,1.244,-1.749,-0.679
-7.478,-0.73,-2.91,2.756,-2.491,-2.11
-10.993,-9.546,-0.709,3.07,0.338,-0.367
-7.296,-13.167,2.505,2.76,2.717,1.251
-3.48,-12.967,4.612,2.411,3.505,2.138
-1.418,-13.607,5.761,1.923,2.798,2.242
-0.829,-16.551,5.225,1.233,1.366,1.433
-0.637,-21.08,3.994,0.148,-0.645,-0.14
-3.574,-25.208,5.58,-1.159,-2.131,-2.026
-6.931,-26.104,7.431,-2.609,-1.826,-2.692
-12.443,-9.634,11.6,-4.459,0.076,-1.447
-3.475,7.582,10.687,-4.153,0.953,-0.154
-2.945,19.647,8.546,-2.457,0.135,-0.602
-2.994,24.415,4.45,-0.726,-0.758,0.16
-1.249,25.056,0.079,0.753,-0.95,0.399
3.674,9.271,-4.976,2.835,-2.05,-0.599
-4.591,-4.137,-3.991,2.824,-2.045,-0.88
-4.891,-10.835,-2.71,2.06,-0.074,0.897
-1.945,-11.097,-1.717,1.635,1.948,1.655
-0.775,-12.16,-0.383,1.562,1.529,1.748
-0.799,-13.856,-0.01,1.218,0.645,1.242
-0.79,-17.859,0.72,0.592,-0.193,0.04
-1.611,-22.829,4.207,-0.359,-1.142,-1.32
-3.975,-25.601,7.534,-1.828,-1.579,-2.258
-5.718,-23.712,10.97,-3.784,-0.579,-1.976
-7.237,-4.08,14.98,-5.521,1.405,-0.28
2.99,6.068,18.99,-5.09,0.042,0.691
1.153,18.172,18.555,-3.519,-0.979,-0.12
-1.056,20.875,13.646,-1.98,-1.96,0.079
-0.325,20.692,9.222,0.094,-2.608,-0.341
1.417,2.855,4.542,2.313,-3.89,-1.816
-9.065,-2.993,-0.455,2.595,-1.825,-1.896
-5.595,-10.375,-3.79,1.924,0.258,-0.067
-0.611,-10.802,-2.354,1.837,1.486,0.359
0.996,-11.994,-1.511,1.556,1.078,0.367
1.003,-14.311,-0.814,0.99,0.147,0.041
0.703,-19.533,0.38,0.227,-0.392,-0.741
-0.258,-24.61,4.229,-1.068,-0.684,-1.459
-2.061,-24.07,6.642,-3.138,0.04,-1.141
-6.275,-5.341,8.998,-4.931,1.917,0.13
2.62,4.949,10.551,-4.137,1.228,0.861
1.388,16.626,10.766,-3.27,-0.298,-0.31
-3.686,21.869,6.451,-1.523,-2.089,-0.02
-4.896,21.808,4.059,0.619,-2.327,-0.439
-2.187,3.186,0.999,2.795,-3.216,-1.653
-11.462,-3.723,-0.079,2.471,-1.368,-1.817
-10.423,-10.367,-1.788,2.314,0.795,0.263
-4.915,-11.04,-1.185,1.802,2.819,0.876
-2.016,-10.786,-1.083,1.566,2.414,1.033
-0.764,-9.448,0.274,1.198,1.585,0.94
-0.36,-9.138,0.383,0.885,0.781,0.585
0.354,-10.484,1.923,0.639,0.17,0.118
1.277,-17.804,3.032,0.324,-0.82,-0.537
0.352,-22.777,4.45,-0.709,-1.495,-1.217
-2.75,-24.147,5.168,-2.101,-1.324,-0.896
-7.652,-16.007,7.44,-3.909,0.535,0.565
-6.171,-4.749,11.87,-4.545,2.475,1.678
-2.06,8.042,15.097,-4.447,1.441,1.603
-6.45,17.623,13.268,-2.091,0.203,0.439
-8.528,18.675,11.442,-0.115,-0.558,-0.222
-5.218,7.625,8.042,2.137,-1.712,-1.242
-7.254,-3.357,2.501,3.292,-2.949,-1.827
-12.626,-8.447,-1.122,3.694,-0.671,-1.139
-7.302,-12.82,-0.676,2.652,1.819,0.762
-2.079,-12.796,0.507,2.467,2.686,1.19
0.128,-10.457,1.265,2.286,2.109,0.97
0.528,-9.448,1.391,1.866,1.383,0.705
1.321,-9.731,1.455,1.394,0.647,0.539
1.406,-16.053,2.728,0.947,-0.954,0.034
-0.012,-24.454,4.871,-0.28,-2.545,-0.901
-3.435,-28.538,7.282,-1.903,-3.281,-1.702
-5.727,-29.255,10.842,-3.848,-1.406,-1.227
-10.418,-14.336,17.167,-5.585,0.545,0.156
-0.347,0.919,19.603,-5.242,1.746,1.983
0.5,17.873,20.614,-4.298,1.283,1.272
-4.613,21.424,16.253,-2.113,0.257,1.014
-3.349,18.844,11.473,-0.2,-0.709,0.248
1.381,3.098,2.583,1.627,-1.304,-1.218
-8.051,-6.599,-1.158,1.422,-0.809,-2.415
-6.659,-14.361,-3.721,1.326,1.109,-0.344
1.132,-12.964,-1.656,0.671,2.655,0.884
2.259,-9.419,-0.21,0.86,2.015,1.281
2.282,-9.015,1.745,1.086,0.661,1.307
2.025,-11.138,0.021,1.082,-0.35,0.842
2.419,-18.691,-1.632,0.856,-0.727,0.055
2.454,-22.829,-1.78,0.027,-1.18,-0.82
0.354,-23.554,-0.849,-1.313,-0.56,-0.468
-4.442,-11.612,2.397,-3.366,1.389,1.058
-2.927,1.249,8.606,-3.931,3.307,2.48
0.073,12.652,11.028,-3.492,1.766,1.951
-4.528,18.584,9.672,-1.351,0.673,0.759
-4.938,17.202,7.843,-0.037,0.207,-0.616
-0.296,5.095,3.512,2.061,-0.437,-2.288
-1.261,-6.128,-0.534,2.863,-1.013,-3.278
-4.061,-11.072,-0.631,2.737,1.236,-1.725
1.195,-12.943,1.919,1.266,3.202,0.79
4.162,-10.116,3.463,1.087,2.848,2.199
4.515,-12.358,6.059,1.117,0.792,2.659
3.257,-17.508,5.058,0.675,-1.365,2.255
0.354,-24.049,5.316,-0.262,-2.773,0.798
-2.905,-27.741,6.145,-1.172,-2.966,-0.198
-6.119,-28.753,7.787,-2.566,-1.278,0.22
-11.81,-7.887,11.521,-4.694,1.422,1.343
-1.029,5.354,19.135,-3.434,2.649,3.238
1.651,17.865,18.037,-2.682,1.808,2.902
-0.284,23.902,13.138,-1.231,0.034,2.356
-0.086,24.398,10.225,0.541,-1.605,1.098
4.589,5.136,4.722,2.806,-3.106,-0.239
-6.147,-2.818,-2.039,2.178,-3.222,-1.622
-7.891,-9.259,-2.379,2.72,-1.169,-0.106
-2.848,-12.721,1.199,2.56,0.968,1.122
-0.97,-14.531,1.909,2.454,1.199,1.46
-1.083,-16.485,1.809,1.918,0.952,1.194
-1.615,-21.36,1.385,0.791,0.713,0.388
-2.932,-23.294,1.877,-0.839,0.027,-0.911
-4.342,-25.177,3.431,-2.682,0.079,-2.054
-5.189,-23.561,5.273,-4.498,1.408,-1.634
-7.991,-2.703,13.076,-6.228,3.156,0.276
4.671,8.968,17.52,-5.136,2.429,1.568
4.623,19.567,19.027,-3.497,1.062,0.677
1.171,22.404,13.191,-1.71,-0.806,0.82
1.987,22.461,9.405,0.058,-1.91,0.329
5.003,4.735,1.015,2.304,-3.411,-1.208
-7.224,-1.355,-3.039,2.303,-2.277,-1.602
-5.701,-9.213,-4.837,2.275,-0.404,0.674
-0.896,-9.956,-0.646,2.392,1.1,1.934
-0.645,-10.732,1.056,2.479,0.493,2.477
-0.904,-12.914,1.799,2.246,-0.411,2.464
-1.846,-17.498,2.261,1.652,-1.47,1.592
-3.163,-22.861,4.014,0.494,-2.689,0.166
-5.803,-25.874,5.651,-0.991,-3.57,-1.18
-8.397,-26.039,7.174,-2.555,-2.294,-1.091
-13.725,-7.808,12.06,-4.568,0.111,0.293
-1.536,6.147,18.452,-3.562,1.871,2.465
1.398,17.889,17.136,-3.135,1.216,2.44
-1.714,22.906,14.383,-1.43,0.272,2.39
-1.739,23.969,12.959,0.074,-0.196,1.583
3.166,6.617,7.685,2.375,-1.495,0.276
-8.962,-3.767,1.19,2.013,-2.208,-1.086
-10.94,-11.091,0.88,2.644,0.051,0.21
-5.033,-13.63,1.96,2.224,2.082,1.117
-1.9,-14.888,2.243,2.063,1.442,1.122
-1.109,-14.325,3.026,1.546,0.648,0.516
-0.365,-15.87,2.545,0.768,-0.062,-0.176
-0.571,-19.718,2.419,-0.221,-1.199,-1.091
-1.989,-21.768,3.022,-1.62,-1.773,-1.858
-4.085,-22.106,3.718,-3.089,-0.82,-1.573
-4.409,-17.508,7.247,-4.873,1.272,0.249
-2.632,-1.933,9.106,-5.267,3.451,2.062
4.438,6.294,13.298,-4.568,2.329,2.099
-0.645,14.565,10.232,-2.054,0.871,0.894
-2.147,17.983,7.13,-0.467,-0.24,0.065
-2.463,14.007,2.711,1.913,-2.22,-1.125
-4.483,-0.374,0.439,3.377,-4.167,-2.252
-11.797,-6.332,-3.563,3.912,-2.141,-1.288
-5.433,-12.836,-1.686,2.883,-0.078,0.736
-2.004,-15.463,0.415,2.867,0.093,1.425
-1.206,-14.926,1.459,2.525,0.134,0.985
-0.897,-14.4,2.045,1.854,0.114,0.375
-0.116,-15.11,1.665,1.15,-0.624,-0.453
-0.632,-18.259,2.297,0.027,-1.865,-1.167
-2.632,-20.237,3.524,-1.405,-2.082,-1.513
-4.446,-22.057,5.943,-2.955,-0.8,-1.103
-5.181,-17.813,9.816,-4.888,1.167,0.753
-0.436,0.826,15.276,-5.598,3.371,2.549
5.927,10.787,19.08,-4.796,2.549,2.532
1.237,16.542,16.398,-2.303,1.092,1.106
0.276,18.736,13.392,-0.474,-0.322,0.277
0.195,12.803,8.235,1.764,-1.87,-1.299
-5.309,-3.974,1.942,3.148,-3.548,-2.483
-11.964,-11.222,-2.419,3.603,-1.199,-1.666
-4.93,-15.508,-0.889,2.649,1.224,0.427
-1.419,-15.73,0.246,2.448,1.712,1.23
-0.295,-13.095,1.499,2.155,1.322,1.352
0.212,-12.361,1.981,1.623,0.838,1.14
-0.065,-12.988,1.784,0.961,-0.297,0.522
-1.466,-16.367,1.631,0.11,-1.668,-0.355
-3.504,-19.221,2.076,-1.199,-2.283,-1.132
-5.727,-22.231,3.342,-2.506,-1.774,-1.557
-7.376,-22.599,6.729,-4.28,0.388,-0.9
-11.092,-3.51,17.713,-5.9,2.666,1.101
0.131,6.782,21.267,-5.051,3.385,2.723
1.066,16.451,24.286,-3.854,2.088,1.511
-3.227,21.678,18.697,-2.219,0.026,1.234
-2.739,23.351,15.063,0.293,-1.79,0.344
