ax,ay,az,gx,gy,gz
-5.633,-7.633,2.313,0.031,-0.031,0.027
-5.601,-7.533,2.229,0.026,-0.096,-0.01
-5.621,-7.375,2.149,0.059,-0.085,0.017
-5.35,-7.043,2.146,0.124,0.031,0.143
-4.925,-6.558,2.196,0.241,0.034,0.383
-4.864,-6.179,2.342,0.417,0.139,0.744
-4.606,-5.574,2.382,0.656,0.453,1.236
-4.081,-4.772,2.369,0.913,0.76,1.884
-3.753,-3.651,2.365,1.149,0.817,2.648
-4.199,-1.988,2.282,1.275,0.685,3.446
-6.608,0.158,2.73,1.133,0.417,4.102
-9.534,1.736,4.577,0.471,0.319,4.545
-14.659,2.374,8.877,-0.503,-0.182,4.147
-19.373,-0.218,14.839,-2.374,-0.21,2.136
-23.929,0.799,21.215,-4.38,-0.456,-0.656
-25.865,4.687,23.853,-6.081,0.179,-3.401
-22.05,10.224,24.909,-6.622,0.633,-4.532
-17.358,14.068,19.653,-5.974,-0.332,-4.984
-14.987,16.876,14.006,-4.06,-0.666,-3.725
-11.205,12.742,7.261,-1.864,-0.036,-1.732
-8.089,4.181,4.36,0.136,-0.267,-0.015
-9.75,-4.56,2.078,1.206,-0.505,0.099
-9.75,-10.377,3.728,1.33,1.392,0.2
-6.812,-12.153,4.331,1.086,2.667,0.158
-3.868,-11.018,4.947,0.848,3.307,0.29
-1.07,-8.162,4.415,0.883,3.587,0.929
0.375,-6.611,3.509,1.376,3.474,1.833
0.817,-5.552,2.616,1.909,2.864,2.742
0.045,-4.123,1.752,2.451,1.716,3.475
-2.786,-2.729,2.449,2.996,0.684,4.101
-5.719,-2.219,3.98,3.286,0.19,4.808
-10.161,-2.115,8.623,2.751,-0.202,5.118
-16.531,-2.676,14.697,1.058,-0.152,4.398
-22.209,-1.863,22.465,-1.36,0.229,2.09
-26.479,2.745,28.428,-3.863,0.294,-0.661
-29.693,10.611,30.875,-6.26,0.605,-3.55
-24.803,17.769,27.479,-7.3,0.996,-5.289
-17.763,22.4,21.075,-6.418,0.287,-5.487
-13.433,22.78,12.534,-4.269,-0.699,-3.675
-10.527,16.378,5.417,-1.899,-0.698,-1.598
-8.084,4.504,2.099,0.404,-0.723,-0.138
-9.497,-5.109,1.53,1.652,-0.432,0.142
-10.312,-10.333,1.906,2.017,0.488,-0.142
-7.859,-12.546,2.623,1.751,2.351,-0.447
-3.051,-11.772,3.238,1.342,3.28,-0.408
0.985,-8.221,2.386,1.055,3.251,0.294
2.138,-5.54,1.325,1.343,2.833,1.443
2.267,-3.628,0.936,1.885,2.426,2.67
0.865,-2.548,1.301,2.622,1.468,3.745
-2.937,-0.944,2.555,3.214,0.498,4.842
-9.298,-0.526,7.604,3.606,-0.403,5.552
-15.242,-4.287,14.908,2.064,-0.611,5.324
-20.83,-6.408,23.006,-0.41,-0.021,3.528
-25.431,-2.805,30.242,-3.031,-0.312,0.658
-29.451,0.829,32.06,-5.505,-0.258,-2.391
-23.277,8.212,29.84,-7.052,0.906,-3.973
-17.953,16.532,21.87,-5.992,-0.192,-4.7
-14.686,19.716,14.452,-3.626,-1.158,-3.403
-11.483,14.084,7.163,-1.065,-0.898,-1.12
-9.239,4.631,5.2,1.295,-0.53,0.163
-10.539,-5.944,4.308,2.397,-0.487,0.005
-11.183,-11.72,6.091,2.303,1.009,-0.275
-8.39,-13.671,6.24,1.578,2.65,-0.726
-5.015,-12.166,6.137,0.804,3.733,-0.92
0.455,-7.489,4.585,0.354,3.989,0.101
1.307,-3.994,2.792,0.632,3.467,1.509
2.16,-2.055,2.281,1.207,3.326,3.222
1.054,-0.823,2.424,1.9,1.929,4.654
-3.914,0.948,4.236,2.638,0.21,5.551
-10.4,1.055,8.817,2.852,-0.809,5.841
-15.276,-4.329,15.092,1.765,-1.307,5.063
-19.649,-6.714,23.379,-0.537,-1.805,3.162
-23.448,-3.377,31.934,-2.872,-1.734,0.459
-25.778,-0.438,34.455,-5.397,-1.293,-1.837
-21.53,6.767,32.719,-6.744,0.029,-3.102
-16.981,16.216,25.627,-5.911,-0.26,-3.477
-14.328,19.484,17.769,-3.602,-0.461,-2.529
-12.053,12.098,9.866,-1.22,-0.298,-0.928
-7.82,4.929,6.367,0.882,0.19,0.04
-7.714,-3.599,4.373,2.031,-0.178,0.112
-7.751,-8.951,5.677,2.089,1.205,0.397
-5.563,-10.645,5.15,1.973,2.254,0.491
-3.238,-7.585,4.257,1.971,2.449,0.862
-1.897,-5.238,3.266,2.318,2.07,1.606
-2.411,-3.542,2.496,2.753,1.966,2.398
-3.357,-2.521,3.056,3.201,1.702,3.033
-6.303,-2.522,5.703,3.627,0.979,3.673
-11.29,-4.382,11.032,3.307,0.465,3.695
-15.851,-8.462,16.587,1.142,-0.018,2.84
-20.168,-8.25,23.923,-1.297,0.027,1.0
-24.233,-4.945,29.663,-3.791,-0.671,-1.481
-28.121,-1.057,29.813,-5.806,-0.781,-4.013
-24.391,7.215,24.854,-6.884,-0.229,-5.125
-19.65,15.302,18.272,-5.547,-0.228,-4.953
-16.128,15.87,11.195,-3.425,-0.996,-3.38
-13.002,9.611,5.424,-1.148,-0.594,-1.349
-7.708,2.385,3.526,0.495,-0.085,-0.129
-5.835,-6.302,3.142,1.434,-0.031,0.269
-6.211,-11.57,3.658,1.876,0.954,0.317
-3.389,-14.099,3.995,1.764,2.666,0.467
-0.087,-12.119,3.306,1.543,3.019,0.848
1.092,-9.3,2.143,1.637,2.942,1.753
0.487,-7.128,1.695,2.03,2.824,2.47
0.108,-5.23,2.831,2.273,2.472,2.913
-1.944,-3.772,3.819,2.565,1.273,3.18
-6.3,-3.838,7.765,2.836,0.287,3.562
-9.476,-7.242,13.932,1.987,-0.276,3.596
-15.584,-10.678,21.093,-0.327,-0.965,2.831
-19.298,-9.757,30.327,-2.634,-0.571,0.741
-25.001,-5.604,33.484,-4.935,-1.569,-1.733
-24.589,1.077,31.417,-6.835,-0.017,-3.31
-20.644,9.176,25.079,-6.336,-0.166,-4.207
-17.259,14.166,18.356,-4.04,-0.789,-3.931
-14.429,11.551,9.557,-1.69,-0.7,-1.959
-8.005,4.39,5.99,0.845,0.478,0.048
-5.885,-3.392,4.741,2.836,-0.169,0.717
-7.227,-9.121,5.644,3.278,1.241,1.157
-4.211,-11.836,6.489,3.408,3.414,1.613
-2.373,-11.035,5.729,3.563,3.257,1.992
-2.474,-9.023,5.167,3.563,3.295,2.418
-3.209,-6.839,5.444,3.495,3.038,2.834
-3.615,-4.692,6.603,3.44,2.18,3.117
-7.162,-3.707,9.312,3.591,0.487,3.029
-10.576,-7.759,15.972,2.626,0.273,2.67
-12.16,-11.166,23.257,0.092,-0.432,1.569
-16.324,-9.028,31.687,-2.26,-1.123,-0.22
-20.973,-7.004,35.735,-4.637,-0.741,-1.873
-18.078,0.65,35.124,-5.89,0.229,-2.738
-16.071,9.194,28.05,-5.253,-1.366,-3.554
-17.188,13.989,20.369,-2.901,-1.529,-2.961
-13.528,7.995,13.023,-0.439,-0.473,-1.65
-9.44,2.154,8.462,1.673,-0.742,-0.828
-9.344,-6.665,6.256,2.226,-0.558,-0.789
-7.729,-11.113,6.668,1.943,1.521,-0.407
-4.069,-12.141,6.671,1.657,2.912,-0.248
-1.88,-9.036,5.083,1.356,3.334,0.493
0.032,-5.783,4.158,1.483,3.685,1.792
-0.248,-4.17,3.421,1.798,3.12,3.104
-2.288,-3.313,3.989,2.097,2.439,3.891
-3.972,-2.658,5.749,2.342,1.525,4.141
-9.76,-4.328,11.314,2.586,-0.231,3.822
-11.137,-12.705,18.554,1.062,-1.313,2.43
-16.653,-12.991,27.131,-1.13,-2.43,0.79
-19.56,-10.149,34.864,-3.323,-2.873,-1.205
-23.919,-5.384,36.018,-5.417,-2.475,-3.04
-16.956,2.5,30.284,-6.037,-1.962,-3.917
-18.528,13.368,23.569,-4.513,-2.678,-3.705
-14.843,11.873,15.991,-2.14,-1.072,-2.779
-10.419,4.615,8.733,0.084,-0.302,-1.472
-5.114,-1.593,6.095,1.964,-0.125,-0.246
-6.412,-8.767,6.189,2.385,1.077,0.354
-3.194,-12.135,5.841,2.47,3.446,1.091
-0.154,-10.623,4.811,2.528,3.692,1.464
0.162,-6.595,3.79,2.855,3.687,2.23
-0.405,-4.797,4.169,3.325,3.368,2.997
-2.297,-2.326,5.242,3.377,2.713,3.539
-4.588,-0.516,7.185,3.467,1.046,3.6
-9.122,-1.058,12.132,3.393,0.214,3.804
-11.502,-4.827,18.475,2.272,-0.319,3.316
-14.526,-8.205,25.597,-0.295,-1.115,2.266
-18.259,-6.704,35.195,-2.553,-1.064,0.162
-22.094,-2.055,38.666,-4.967,-0.534,-2.0
-17.593,6.171,36.202,-6.218,0.106,-3.057
-16.229,14.037,28.926,-5.399,-1.345,-3.602
-17.228,16.203,21.859,-2.939,-1.144,-3.28
-12.898,11.411,13.479,-0.565,-0.141,-1.757
-8.255,3.035,9.531,1.645,-0.022,-0.389
-9.275,-6.297,8.278,2.542,0.512,-0.329
-7.886,-11.3,9.726,2.28,3.256,0.051
-2.527,-11.168,9.629,1.957,4.77,0.504
-1.306,-8.835,7.65,1.859,4.319,1.147
-0.033,-6.55,6.658,2.043,4.759,2.413
-0.258,-4.364,5.592,2.37,3.364,3.474
-2.71,-2.698,5.978,2.541,1.951,3.851
-4.788,-1.622,7.174,2.62,0.394,3.728
-8.215,-2.404,11.194,2.815,-0.849,3.461
-11.644,-5.942,16.567,1.722,-1.613,2.435
-15.117,-8.595,26.098,-0.608,-1.806,1.21
-17.993,-4.534,35.929,-2.768,-1.187,-0.53
-24.307,2.909,39.026,-4.856,-0.931,-2.386
-19.429,10.944,36.155,-5.781,-0.063,-3.071
-17.721,18.228,30.285,-4.679,-1.254,-3.3
-16.701,17.967,21.889,-2.186,-0.884,-2.885
-12.273,11.031,12.239,-0.047,-0.552,-1.616
-5.054,1.637,7.594,1.966,-0.088,-0.171
-7.249,-6.854,5.834,2.669,0.553,0.326
-5.926,-10.156,5.778,2.73,3.172,1.256
-2.925,-7.087,4.864,2.88,3.914,2.068
-3.882,-4.023,4.343,3.377,3.689,2.905
-3.969,-1.813,5.273,3.609,3.605,3.739
-6.733,0.174,7.632,3.788,2.163,3.782
-9.491,0.671,11.059,3.492,0.762,3.389
-13.23,-1.993,15.166,2.746,0.047,2.502
-15.173,-9.138,20.676,0.357,-1.027,1.11
-20.445,-9.743,29.662,-2.016,-1.366,-0.786
-23.549,-5.778,33.703,-4.443,-1.537,-2.945
-24.03,4.237,34.378,-6.375,-0.283,-3.431
-18.521,11.268,29.272,-6.002,-1.352,-3.816
-19.256,18.244,25.416,-3.356,-2.465,-3.464
-15.289,14.427,16.41,-1.286,-1.717,-2.347
-11.216,7.654,10.897,0.727,-0.704,-0.913
-7.931,-3.504,7.606,2.377,-0.443,-0.891
-8.664,-8.888,8.501,2.169,1.605,-0.371
-4.179,-10.08,6.192,1.548,3.989,0.221
-1.826,-6.027,4.705,1.765,4.086,0.964
0.09,-3.146,3.426,2.214,3.992,2.15
-1.091,-1.57,3.549,2.895,2.764,3.014
-3.878,-0.178,5.275,3.349,1.583,3.627
-8.013,1.215,9.328,3.675,0.377,3.635
-10.288,-0.639,16.013,3.425,-0.567,3.41
-12.128,-7.915,23.022,1.525,-1.276,2.549
-15.387,-9.375,32.115,-1.041,-1.754,1.306
-17.768,-5.948,39.136,-3.557,-1.642,-0.655
-20.934,0.908,38.034,-6.072,-0.695,-2.259
-17.449,9.092,32.667,-6.719,0.22,-2.874
-15.72,17.672,25.801,-5.08,-0.651,-3.169
-13.77,17.426,15.823,-2.817,-0.503,-2.535
-9.897,12.182,7.848,-0.567,0.473,-1.087
-2.474,3.774,5.669,1.691,0.324,0.536
-4.847,-3.135,5.563,2.98,-0.611,1.038
-5.289,-5.677,6.898,3.638,1.179,1.885
-3.851,-4.573,7.831,4.363,2.164,2.412
-4.087,-3.065,7.294,4.965,1.737,3.058
-6.344,-2.217,8.22,5.435,1.54,3.457
-7.916,0.174,9.315,5.362,1.208,3.578
-10.479,2.17,13.304,4.4,0.707,3.389
-12.474,1.705,16.963,2.782,-0.568,2.485
-14.583,-1.497,22.008,0.269,-0.716,0.95
-17.51,0.657,28.149,-2.541,-0.902,-1.179
-18.862,1.56,31.756,-5.147,-0.491,-3.185
-19.534,5.466,29.332,-6.935,-0.078,-4.609
-16.386,12.432,24.566,-7.189,0.814,-4.739
-13.872,18.327,18.369,-5.562,0.012,-4.091
-10.972,15.677,10.181,-3.31,-0.464,-2.431
-8.951,9.232,5.435,-1.25,0.17,-0.718
-5.398,2.214,3.221,0.596,0.24,0.478
-6.119,-5.675,3.332,1.528,0.27,0.799
-5.69,-9.597,3.997,1.696,1.53,0.983
-3.738,-9.893,3.486,1.742,2.716,1.141
-2.634,-6.492,1.637,1.985,3.035,1.74
-2.378,-5.186,0.236,2.24,3.127,2.707
-2.509,-3.62,0.407,2.465,2.873,3.974
-5.696,-1.656,1.429,2.692,1.931,5.003
-10.62,1.108,5.38,2.469,1.227,5.322
-14.909,0.512,10.649,1.922,-0.651,4.539
-19.832,-3.426,17.383,0.155,-1.264,2.766
-25.56,-2.256,23.257,-2.118,-1.741,-0.069
-26.677,-0.238,26.757,-4.48,-1.555,-2.972
-26.18,2.451,25.388,-6.133,-1.414,-5.058
-21.256,9.546,21.545,-6.774,-0.244,-5.454
-16.994,17.428,15.105,-5.222,-1.06,-4.969
-12.287,16.017,8.574,-3.043,-1.234,-3.273
-9.48,9.459,4.314,-0.957,-0.92,-1.542
-5.961,2.373,2.529,0.693,-0.924,-0.32
-6.327,-5.367,2.274,1.634,-0.534,0.022
-5.417,-9.974,2.473,1.802,0.649,0.36
-3.897,-10.469,2.409,1.891,1.958,0.718
-3.194,-7.381,1.661,2.216,2.457,1.248
-2.593,-5.772,1.573,2.593,3.032,2.009
-3.001,-4.927,2.174,2.945,2.827,2.819
-4.718,-3.521,3.862,3.124,2.312,3.545
-7.614,-2.517,7.589,3.159,1.649,3.915
-9.403,-2.709,14.727,2.769,0.264,3.798
-12.015,-8.009,20.225,1.305,-1.332,2.991
-15.39,-8.417,26.745,-1.103,-2.32,1.633
-18.508,-6.649,31.858,-3.445,-2.779,-0.144
-20.54,-3.073,32.45,-5.713,-3.076,-1.821
-18.756,4.291,26.65,-6.908,-1.986,-2.577
-16.331,15.241,20.692,-6.047,-1.414,-2.669
-13.49,17.199,13.497,-3.6,-1.406,-1.879
-10.633,9.6,7.943,-1.309,-0.923,-0.669
-7.081,2.788,5.608,0.751,-0.166,0.283
-6.685,-5.996,6.128,1.877,0.113,0.548
-6.565,-11.972,6.99,2.028,1.118,0.746
-5.249,-13.657,6.859,1.714,2.695,0.827
-3.269,-7.919,5.773,1.722,3.618,1.245
-1.747,-4.963,3.998,2.006,3.655,2.173
-2.06,-4.053,3.203,2.502,2.917,3.09
-3.549,-2.681,4.072,2.789,1.909,3.64
-5.856,-1.776,6.049,2.921,0.881,3.739
-8.187,-2.777,9.83,2.712,-0.013,3.436
-11.628,-5.691,15.78,1.828,-1.186,2.459
-15.249,-6.717,21.547,-0.336,-1.443,1.024
-17.876,-5.381,26.853,-2.62,-1.371,-0.553
-20.523,-1.937,29.086,-4.885,-1.485,-2.16
-20.708,7.421,28.062,-6.594,-0.59,-3.099
-16.558,14.37,21.676,-6.162,-0.678,-3.562
-15.171,17.191,14.986,-4.21,-1.523,-3.033
-12.706,13.427,9.294,-2.083,-0.561,-1.915
-7.602,8.305,6.075,0.094,0.112,-0.534
-5.676,-1.439,4.241,1.982,-0.491,0.159
-6.58,-6.6,5.282,2.402,0.99,0.927
-4.206,-7.969,5.933,2.637,2.833,1.518
-2.725,-6.565,5.018,2.979,2.707,2.155
-3.457,-5.477,4.208,3.13,2.318,2.654
-4.223,-4.445,4.498,3.141,1.737,3.066
-7.318,-3.434,6.966,3.155,0.82,3.278
-9.749,-3.628,11.7,2.747,-0.166,3.074
-11.442,-8.244,17.568,1.343,-0.465,2.122
-15.272,-8.888,24.709,-0.984,-1.804,0.245
-18.844,-6.444,31.723,-3.265,-1.563,-1.467
-22.439,-0.724,31.622,-5.173,-1.525,-3.326
-20.226,5.019,27.502,-6.249,-0.77,-4.431
-18.734,13.326,19.817,-5.327,-1.954,-4.405
-16.784,13.947,13.138,-3.008,-0.84,-2.992
-13.109,9.387,6.276,-0.68,-0.138,-1.648
-6.665,0.941,5.389,0.99,0.774,-0.247
-6.152,-6.09,5.796,1.978,0.992,0.534
-5.326,-10.924,8.491,1.866,2.999,0.829
-2.305,-12.38,8.456,1.439,4.215,0.918
-0.092,-11.423,7.613,0.93,4.517,1.287
1.544,-9.207,5.395,0.513,4.192,2.025
2.586,-7.017,3.635,0.335,3.467,2.976
2.273,-5.005,3.333,0.587,1.659,4.102
-3.467,-3.065,6.539,1.128,-0.316,4.913
-8.438,-6.716,13.556,0.489,-0.969,5.077
-14.991,-8.446,19.129,-1.216,-2.189,3.258
-19.483,-7.648,24.343,-3.013,-1.833,0.956
-23.069,-5.149,25.19,-4.161,-1.213,-1.261
-20.79,0.364,24.743,-5.367,0.353,-2.217
-20.845,11.66,17.892,-4.614,-1.287,-3.756
-18.587,16.363,13.832,-3.326,-0.809,-3.418
-15.521,15.868,10.013,-1.544,-1.176,-2.66
-10.851,8.882,7.639,-0.923,-0.789,-1.929
-7.84,-0.225,4.553,-0.287,0.139,-2.214
-1.518,-8.7,5.962,-0.471,3.173,-1.177
2.599,-11.769,5.202,0.095,3.873,-0.106
3.727,-12.771,4.483,0.227,4.493,1.018
3.908,-8.487,5.3,0.738,4.473,1.909
4.099,-4.83,4.702,1.057,2.904,2.915
1.946,-2.876,2.732,1.521,1.092,3.776
-1.875,-1.682,5.028,2.115,-0.261,4.464
-7.064,-2.154,9.725,2.358,-1.112,4.793
-10.97,-8.768,15.937,1.4,-1.139,4.294
-16.547,-10.88,22.783,-0.784,-1.326,2.411
-22.826,-7.067,31.592,-2.996,-1.367,-0.257
-27.625,-2.505,33.105,-5.306,-0.718,-3.086
-24.858,6.677,28.803,-6.849,-0.222,-4.908
-21.429,17.107,20.508,-5.952,-0.767,-5.17
-17.992,19.554,13.881,-3.55,-1.315,-3.695
-14.558,13.02,7.881,-1.2,-0.668,-1.911
-7.532,4.49,5.542,0.77,-0.011,-0.334
-5.624,-5.755,6.316,2.086,0.424,0.382
-5.841,-11.272,8.46,1.963,1.424,0.46
-3.614,-13.147,8.769,1.523,3.278,0.22
-0.07,-11.528,6.419,1.157,3.898,0.583
1.302,-8.971,4.68,1.064,4.263,1.491
2.057,-7.032,2.858,1.082,3.954,2.656
1.869,-5.036,2.935,1.231,3.102,3.759
-0.414,-3.24,3.789,1.6,1.323,4.687
-5.823,-2.478,7.095,1.671,0.195,5.198
-11.592,-5.686,11.275,1.204,-0.656,4.62
-18.109,-6.531,18.474,-0.384,-1.089,2.642
-25.109,-3.305,25.881,-2.461,-1.031,-0.189
-29.891,0.604,28.733,-4.757,-0.863,-3.138
-28.106,7.9,25.304,-6.174,-0.647,-5.323
-23.194,15.989,18.812,-5.96,-1.091,-6.005
-20.047,18.639,11.5,-4.31,-1.546,-4.791
-15.42,13.042,5.478,-2.185,-1.043,-2.881
-8.543,5.98,2.911,-0.029,-0.278,-1.219
-6.203,-3.12,3.66,1.419,-0.169,-0.335
-5.259,-8.879,5.797,1.631,1.114,0.303
-2.78,-11.804,6.174,1.664,2.768,0.526
0.451,-11.057,5.289,1.526,3.673,1.323
1.065,-8.203,3.681,1.356,3.925,2.615
1.667,-5.647,2.752,1.265,3.739,4.154
-0.77,-3.379,3.831,1.522,2.525,5.234
-4.842,-1.305,7.038,1.75,0.965,5.872
-10.442,-1.601,11.327,1.691,-0.555,5.397
-15.88,-5.739,15.977,0.568,-1.321,3.818
-21.045,-5.567,23.005,-1.425,-1.359,1.316
-24.76,-2.279,28.358,-3.657,-1.077,-1.526
-25.642,1.988,28.755,-5.91,-0.867,-4.104
-23.472,10.855,23.587,-7.004,-0.368,-5.423
-18.076,18.223,17.733,-6.075,-0.225,-5.024
-14.738,17.678,10.771,-3.861,-1.153,-3.656
-11.888,11.45,6.089,-1.792,-0.557,-2.077
-7.392,4.032,3.162,0.159,0.083,-0.847
-4.965,-4.846,4.329,1.267,0.574,-0.338
-4.733,-9.349,5.754,1.41,1.603,-0.252
-2.102,-10.506,5.857,1.146,3.494,-0.013
1.178,-8.784,4.081,1.183,3.771,0.813
1.913,-6.918,3.367,1.456,3.653,2.141
1.723,-5.976,1.955,1.708,3.256,3.607
0.204,-4.91,1.609,1.848,2.5,4.887
-4.267,-3.045,3.263,2.185,1.223,5.729
-9.717,-1.345,7.781,1.856,0.978,6.027
-14.852,-1.868,12.001,1.105,-0.244,4.707
-18.285,-4.01,18.576,-0.889,-0.413,2.547
-23.989,-0.996,26.139,-2.999,-1.27,-0.576
-26.551,1.722,29.682,-5.287,-1.872,-3.559
-26.458,7.197,26.187,-6.881,-1.904,-5.732
-20.877,13.73,21.335,-6.67,-0.776,-5.531
-18.304,17.319,15.629,-4.579,-2.114,-4.38
-14.458,11.181,9.374,-2.244,-1.305,-2.581
-9.038,6.232,5.111,-0.034,0.299,-0.788
-5.065,-2.4,5.198,1.962,0.462,0.276
-6.121,-8.952,6.325,2.469,1.18,0.535
-5.075,-10.523,6.616,2.502,3.513,0.94
-2.922,-7.713,6.213,2.575,4.229,1.798
-2.799,-6.79,5.297,2.778,4.025,2.717
-2.922,-5.145,4.33,2.804,3.767,3.629
-3.793,-3.814,4.462,2.751,2.709,4.257
-6.414,-2.045,5.008,2.709,1.372,4.505
-9.297,-0.93,7.329,2.36,0.656,4.489
-13.364,-0.513,12.978,1.595,-0.081,3.576
-16.291,-4.983,19.44,-0.366,-0.976,1.98
-22.497,-1.915,29.931,-2.522,-0.961,-0.289
-26.418,1.892,37.754,-4.803,-1.477,-2.854
-29.366,7.836,38.901,-6.862,-1.123,-5.164
-23.807,15.013,33.184,-7.312,-0.68,-5.677
-19.982,22.318,24.782,-5.274,-1.005,-5.07
-15.809,18.974,13.747,-2.741,-1.647,-3.225
-11.681,11.978,6.524,-0.235,-0.075,-1.125
-6.472,1.471,4.127,2.147,0.225,0.225
-7.708,-7.404,5.137,3.215,0.523,0.477
-8.343,-11.478,7.498,3.157,2.342,0.501
-4.475,-12.709,8.534,2.757,4.635,0.458
-0.906,-11.593,7.776,2.348,4.832,0.825
0.356,-8.103,6.26,2.081,4.339,1.816
0.071,-6.908,4.583,1.973,3.801,2.889
-0.524,-5.254,3.915,1.825,3.018,3.903
-2.513,-3.559,3.717,1.743,1.556,4.605
-7.019,-1.17,5.489,1.7,0.163,4.963
-11.54,-1.527,11.328,1.306,-0.648,4.742
-15.214,-6.683,18.144,-0.501,-0.411,3.654
-20.397,-5.792,28.659,-2.578,-0.817,1.225
-25.035,-1.693,36.967,-4.628,-0.889,-1.603
-27.425,2.22,38.293,-6.682,-0.028,-4.357
-24.807,11.119,32.713,-7.207,0.527,-5.741
-22.092,20.734,25.595,-5.23,-0.546,-5.67
-19.421,18.839,15.053,-2.821,-0.365,-3.638
-14.837,11.192,8.216,-0.387,0.872,-1.502
-9.282,3.087,5.92,1.947,0.777,0.374
-8.336,-7.143,6.846,3.038,1.291,1.028
-6.506,-12.729,8.601,3.008,3.214,1.3
-2.068,-12.733,9.752,2.785,4.551,1.281
-0.091,-10.383,7.608,2.637,3.902,1.652
-0.351,-8.097,5.579,2.552,3.689,2.253
0.303,-6.016,3.845,2.605,3.177,3.184
-1.206,-3.711,3.88,2.649,1.954,4.187
-5.606,-1.035,5.527,2.716,0.716,4.945
-9.708,-0.335,11.321,1.932,0.549,5.438
-14.733,-5.415,16.417,0.473,-0.039,4.666
-20.238,-5.019,26.418,-1.866,0.052,2.397
-24.614,-0.993,35.692,-4.21,0.133,-0.534
-29.769,3.677,39.817,-6.462,-0.191,-3.573
-27.111,11.992,36.331,-7.48,-0.293,-5.716
-23.183,22.224,28.894,-6.317,-1.016,-6.145
-20.635,22.948,18.469,-3.988,-1.185,-4.333
-16.792,15.408,9.881,-1.365,-0.63,-1.956
-9.374,5.583,5.22,1.139,0.147,-0.177
-8.936,-5.04,4.069,2.967,0.594,0.465
-7.012,-10.634,7.598,3.248,2.692,0.828
-3.446,-12.763,9.134,3.095,3.997,0.705
-0.61,-10.226,8.111,2.63,4.638,0.961
1.213,-6.871,5.852,2.368,4.376,2.056
0.813,-4.182,4.375,2.445,3.39,3.421
-1.42,-2.825,4.674,2.534,2.6,4.871
-6.219,-0.406,7.742,2.534,1.24,5.847
-12.153,-0.185,14.089,2.268,-0.539,5.332
-16.631,-6.746,20.614,0.38,-0.611,3.752
-22.267,-5.086,32.609,-2.011,-1.012,1.155
-25.673,-1.379,40.502,-4.332,-0.942,-1.897
-26.235,3.718,40.503,-6.463,-0.186,-4.625
-21.105,9.634,33.81,-7.049,0.419,-5.558
-19.302,19.201,25.015,-5.333,-0.716,-5.169
-15.495,15.873,13.306,-3.151,0.231,-3.284
-10.217,8.862,5.518,-0.892,0.796,-1.309
-5.783,0.414,2.51,1.325,0.335,0.12
-5.576,-6.472,2.904,2.377,0.683,0.789
-3.3,-10.162,5.633,2.746,2.163,1.138
0.132,-10.856,6.074,3.202,2.643,1.355
-0.803,-8.119,3.591,3.629,2.254,1.533
-1.381,-6.162,2.576,3.823,2.773,2.293
-2.234,-4.972,2.824,3.942,2.632,3.285
-4.845,-2.836,4.366,3.866,2.109,4.071
-9.804,0.647,7.692,3.422,1.429,4.399
-11.745,0.577,14.928,2.682,0.942,4.432
-13.505,-4.457,19.518,1.299,0.271,3.499
-17.403,-5.832,26.262,-1.178,-0.183,1.534
-19.95,-3.159,34.174,-3.541,-0.028,-1.013
-20.916,-0.957,36.417,-5.735,-0.619,-3.381
-21.023,7.2,32.706,-7.529,0.248,-4.615
-17.286,17.257,28.202,-6.925,0.133,-4.552
-14.887,20.189,20.301,-4.252,-0.811,-3.509
-12.678,11.687,11.96,-1.811,-0.624,-1.945
-8.001,6.254,6.364,0.415,0.663,-0.405
-5.175,-2.555,4.779,2.665,0.271,0.305
-6.283,-7.998,5.127,3.498,0.974,0.669
-4.568,-9.657,5.818,3.489,3.02,1.185
-2.413,-5.237,4.093,3.72,3.272,2.135
-3.397,-2.998,3.761,4.081,2.921,3.072
-5.371,-0.851,3.938,4.164,2.712,4.04
-8.512,1.598,6.111,3.913,1.874,4.666
-13.334,2.286,10.684,3.458,0.895,4.558
-15.395,-0.946,16.26,2.382,0.016,3.316
-18.055,-3.782,23.626,-0.136,-0.35,1.512
-22.674,-1.053,33.06,-2.62,-0.904,-1.057
-25.532,1.447,37.901,-4.879,-1.197,-3.695
-24.434,9.341,35.461,-7.088,-0.368,-5.268
-20.3,19.048,29.935,-7.231,-0.068,-5.284
-18.031,23.57,21.591,-4.795,-1.578,-4.5
-14.921,16.158,12.144,-2.454,-1.37,-2.865
-9.312,9.367,6.269,-0.245,-0.121,-1.239
-5.935,-0.976,4.085,2.02,-0.776,-0.643
-7.548,-8.198,4.794,2.769,0.23,-0.614
-4.917,-10.714,5.622,2.51,2.864,-0.357
-0.776,-7.299,4.677,2.471,3.991,0.336
-0.051,-5.302,3.645,2.684,3.898,1.698
-0.407,-3.206,3.558,2.898,3.976,3.506
-2.411,-1.466,4.065,2.971,2.987,4.839
-7.161,-0.005,6.58,3.116,1.631,5.177
-11.52,1.319,11.593,3.124,0.524,5.062
-15.54,-1.239,16.808,2.269,-0.536,3.969
-19.126,-5.217,24.771,-0.211,-0.942,2.171
-23.182,-2.235,35.534,-2.485,-0.589,-0.169
-25.58,2.296,41.059,-4.878,-0.764,-2.549
-23.386,13.836,40.203,-6.902,0.024,-3.609
-18.257,21.755,33.077,-6.304,-0.363,-3.935
-16.825,25.319,25.159,-3.67,-1.762,-3.108
-14.23,18.556,16.0,-1.525,-1.197,-2.019
-8.388,10.542,9.335,0.535,-0.654,-0.603
-7.566,-3.258,6.0,2.168,-1.102,-0.456
-9.324,-8.664,7.663,2.027,0.728,-0.3
-5.998,-8.697,7.883,1.582,3.852,-0.467
-1.429,-6.092,5.846,1.769,4.18,0.347
-0.617,-4.02,4.768,2.097,4.517,1.692
-0.525,-3.46,3.419,2.39,4.702,3.163
-1.16,-2.915,3.67,2.441,3.732,4.367
-5.814,-1.556,6.112,2.353,1.954,5.137
-11.933,-0.309,11.517,1.836,-0.093,5.136
-16.571,-5.676,15.577,0.474,-0.366,4.06
-22.487,-6.054,23.286,-1.737,-1.41,1.612
-28.042,-1.568,32.743,-3.812,-1.389,-1.2
-31.554,2.038,34.907,-5.914,-1.664,-3.995
-29.059,8.344,30.428,-7.364,-0.254,-5.891
-24.257,18.936,24.61,-6.472,-1.085,-6.334
-20.735,21.268,16.646,-4.164,-1.47,-4.849
-16.438,13.436,8.439,-1.763,-0.548,-2.762
-8.677,6.537,4.608,0.544,0.678,-0.727
-6.214,-3.08,4.711,2.532,0.631,0.504
-6.287,-9.227,6.631,2.852,2.153,1.364
-2.842,-11.634,7.705,2.814,4.348,1.736
-0.509,-9.353,5.888,2.682,4.439,2.379
-0.535,-7.148,3.721,2.734,3.915,3.331
-1.499,-4.626,2.379,2.949,3.313,4.666
-4.957,-2.28,4.095,2.993,2.738,5.752
-11.127,-0.425,9.82,2.94,1.095,6.067
-15.627,-4.579,15.786,1.665,0.093,5.055
-21.698,-5.678,24.771,-0.695,-0.037,2.804
-27.263,0.302,35.3,-3.262,0.07,-0.321
-31.365,3.602,40.157,-5.544,-0.884,-3.508
-29.158,10.184,36.415,-7.569,0.101,-5.746
-24.822,20.952,30.061,-6.896,-0.186,-6.323
-20.421,24.122,20.282,-4.668,-1.203,-5.225
-16.235,15.147,10.507,-2.201,-1.056,-3.147
-9.421,8.409,5.276,0.144,0.248,-1.229
-5.939,-1.517,4.756,2.377,-0.073,0.095
-6.336,-8.869,5.927,3.0,0.706,0.723
-4.942,-12.119,7.902,3.146,3.022,1.051
-2.438,-10.012,6.912,3.045,4.219,1.703
-2.31,-7.944,4.895,3.201,4.114,2.667
-2.524,-5.35,3.566,3.119,4.346,4.004
-4.939,-2.763,4.556,3.319,3.424,4.971
-10.125,-1.77,9.162,3.346,2.154,5.439
-13.361,-5.215,15.283,2.492,0.941,4.493
-19.366,-8.108,23.198,0.048,-0.229,2.581
-27.431,-3.509,34.56,-2.295,-0.455,-0.402
-32.966,0.531,40.882,-4.784,-0.883,-3.261
-31.446,10.289,39.6,-7.184,-0.033,-5.253
-26.376,19.587,32.439,-6.597,-0.861,-5.883
-23.647,23.733,24.708,-4.259,-2.018,-5.168
-17.61,16.121,14.0,-2.126,-1.329,-3.422
-8.677,9.19,7.157,0.075,-0.075,-1.759
-4.777,-1.697,3.395,2.217,-0.801,-0.957
-6.349,-8.444,4.674,2.26,0.98,-0.564
-2.085,-9.629,4.624,2.15,4.07,-0.231
0.673,-7.907,4.501,2.369,3.946,0.468
-0.573,-6.403,3.439,2.529,4.257,1.61
-1.02,-5.805,3.169,2.587,5.097,3.401
-1.569,-4.103,2.497,2.526,4.538,5.345
-4.843,-1.567,3.378,2.468,2.804,6.623
-13.426,2.199,7.14,2.519,2.2,6.741
-16.027,2.317,14.266,1.679,1.07,5.781
-20.963,-1.989,21.422,-0.521,-0.53,3.856
-27.756,4.176,33.857,-2.603,-0.306,0.778
-34.753,9.464,43.135,-4.831,-0.475,-2.518
-30.268,17.548,42.449,-7.233,-0.001,-5.047
-25.15,25.06,34.124,-7.137,0.124,-5.555
-20.59,31.733,26.122,-4.779,-0.079,-4.977
-16.793,22.684,15.578,-2.43,-1.109,-3.615
-7.595,13.274,7.179,-0.19,-0.025,-2.022
-4.266,0.776,3.877,2.124,-0.664,-0.908
-5.616,-7.297,5.609,2.694,0.407,-0.82
-4.009,-10.071,6.901,2.716,2.166,-0.95
-0.447,-8.104,5.965,2.664,3.866,-0.42
0.588,-7.294,4.794,2.731,4.493,0.783
1.35,-5.677,3.627,2.527,5.157,2.804
0.152,-4.157,3.872,2.498,4.137,4.751
-7.521,0.656,7.966,2.471,2.888,5.75
-11.533,1.303,14.932,1.936,0.83,6.02
-16.047,-5.753,20.065,0.623,-0.161,5.124
-21.059,-6.616,30.514,-1.487,-0.69,2.758
-24.739,-2.123,40.208,-3.647,0.15,-0.606
-25.431,1.947,41.69,-6.0,0.76,-3.359
-21.326,12.072,36.27,-6.728,1.844,-4.712
-18.264,23.858,29.489,-5.244,0.57,-5.307
-17.453,22.304,20.528,-2.726,-0.021,-4.29
-14.072,15.516,12.347,-0.415,0.152,-2.656
-6.477,6.412,7.882,1.891,0.252,-1.01
-6.911,-4.31,7.224,3.169,0.917,-0.17
-6.02,-8.341,9.33,3.252,3.145,1.065
-2.827,-5.368,9.226,3.494,4.792,2.217
-2.887,-2.382,7.624,3.741,4.944,4.068
-4.904,0.634,7.544,4.017,4.236,5.688
-9.553,2.771,9.056,4.188,2.232,6.042
-13.695,1.752,11.678,3.717,0.945,5.369
-15.494,-2.316,17.26,2.43,-0.609,3.622
-18.813,-5.995,26.122,-0.128,-2.035,1.106
-23.185,-2.076,37.197,-2.71,-1.882,-1.668
-27.759,2.72,44.571,-5.191,-1.939,-4.085
-27.73,12.292,42.782,-7.281,-1.633,-5.431
-24.479,22.549,34.924,-7.02,-1.054,-5.078
-20.689,26.176,25.266,-4.668,-1.625,-4.022
-16.53,18.211,15.74,-2.034,-1.424,-2.507
-7.53,11.069,7.802,0.418,-0.137,-0.611
-3.661,1.057,7.461,2.889,-0.18,0.667
-5.327,-6.14,9.077,3.718,0.114,0.901
-5.427,-8.211,9.863,4.044,2.424,1.276
-3.088,-5.593,7.521,4.016,3.664,2.221
-2.91,-3.417,5.712,4.133,3.532,3.543
-6.228,0.282,6.993,4.395,2.289,4.472
-11.286,1.211,11.279,4.389,1.219,4.671
-13.125,-0.089,16.066,3.416,0.418,4.14
-17.079,-4.633,22.256,1.191,-1.137,2.497
-21.534,-4.395,32.773,-1.379,-0.818,-0.11
-22.558,-2.253,39.537,-4.111,0.027,-2.837
-22.354,4.915,38.677,-6.669,1.123,-4.706
-17.618,13.908,33.597,-6.773,0.0,-5.194
-16.456,20.678,26.263,-4.8,-1.264,-4.674
-14.138,16.776,16.91,-2.475,-1.192,-3.19
-9.929,11.345,9.242,-0.114,-0.659,-1.246
-4.793,2.135,6.724,2.343,-1.085,0.273
-7.269,-5.95,7.016,3.265,0.212,0.857
-4.291,-9.14,8.054,3.562,2.464,1.351
-3.338,-6.123,5.989,4.393,1.852,1.398
-5.231,-4.928,5.084,4.837,2.747,2.061
-5.136,-3.353,5.36,4.655,3.474,2.984
-7.344,-0.79,6.698,4.696,1.569,3.223
-11.646,0.094,10.56,4.095,1.142,3.246
-13.628,-2.092,15.302,2.612,0.745,2.91
-14.6,-4.779,21.361,0.24,0.317,1.772
-19.852,-3.082,29.43,-2.035,-0.275,-0.551
-21.851,0.129,35.656,-4.599,0.856,-2.764
-23.011,6.769,35.11,-6.636,1.076,-4.949
-18.78,15.989,31.582,-6.909,1.325,-5.326
-17.963,21.503,23.033,-5.071,-1.011,-5.172
-14.342,17.538,14.539,-2.683,-0.985,-3.625
-10.144,11.582,8.238,-0.284,-0.662,-1.818
-5.447,3.312,5.707,2.12,-1.209,-0.293
-7.101,-5.341,5.677,3.173,-0.564,0.209
-5.532,-8.384,6.96,3.629,1.804,0.934
-5.069,-5.029,6.712,4.307,2.738,1.627
-5.968,-2.58,7.214,4.551,3.969,3.014
-6.56,0.129,8.093,4.738,3.222,4.273
-12.668,1.103,11.147,4.983,1.507,4.352
-14.45,-0.448,16.444,4.222,1.423,4.103
-16.165,-6.646,20.298,2.374,-0.352,2.772
-20.824,-8.643,27.402,-0.27,-1.615,0.421
-24.372,-5.299,35.757,-2.873,-0.81,-2.506
-26.049,2.247,37.011,-5.572,0.345,-4.517
-23.311,12.908,34.383,-7.08,0.312,-5.3
-19.845,21.584,29.062,-6.412,-0.313,-5.409
-16.979,22.487,19.077,-4.313,-1.685,-4.37
-13.82,17.243,9.487,-2.143,-1.024,-2.571
-5.015,9.001,5.646,0.27,-0.592,-0.599
-5.748,-0.792,4.29,2.479,-1.24,0.103
-6.267,-5.144,5.858,3.395,0.289,1.344
-5.033,-5.891,7.199,4.528,1.562,1.441
-4.607,-6.918,8.317,5.266,2.176,1.884
-4.896,-6.412,7.343,5.333,2.652,2.463
-5.202,-4.527,6.831,5.085,2.136,2.874
-7.87,-1.724,7.802,4.687,1.298,2.854
-9.853,0.301,9.94,3.609,1.269,3.206
-11.646,1.732,13.915,2.426,0.336,3.382
-15.855,-2.062,19.828,0.814,-0.248,2.468
-19.162,-3.159,29.297,-1.604,0.615,0.657
-21.346,0.471,36.717,-4.007,1.833,-1.728
-22.613,11.716,39.739,-6.161,2.697,-3.753
-17.292,18.118,33.407,-6.246,1.704,-5.152
-15.059,24.061,26.069,-4.86,0.066,-5.069
-14.145,22.094,16.94,-2.677,-0.12,-3.911
-9.901,15.48,9.675,-0.433,-0.493,-2.337
-5.274,1.142,5.045,1.808,-1.36,-1.125
-8.035,-6.249,6.19,2.392,-0.452,-0.521
-6.289,-9.642,7.818,2.412,1.85,-0.359
-3.299,-7.798,6.889,2.675,2.794,0.097
-2.168,-7.508,5.143,2.989,3.558,1.166
-1.399,-5.848,3.54,3.146,4.02,2.521
-1.364,-4.161,3.348,3.171,3.367,3.771
-4.513,-1.363,4.843,3.291,1.566,4.369
-7.926,-0.28,8.099,2.884,-0.033,4.431
-11.223,-0.576,13.152,1.992,-0.596,3.746
-13.263,-1.98,19.768,0.6,-1.469,2.447
-15.373,-4.148,28.488,-1.649,-0.876,0.666
-16.461,-1.04,35.011,-4.043,0.158,-1.327
-18.637,5.328,36.21,-6.082,1.369,-3.184
-14.779,13.733,32.624,-6.663,1.374,-3.802
-13.402,17.69,25.555,-5.338,0.385,-4.109
-14.364,17.735,17.211,-3.06,-0.198,-3.377
-10.396,12.632,10.483,-0.847,0.508,-1.976
-4.915,4.019,7.546,1.573,-0.215,-0.659
-6.133,-3.947,6.485,2.911,-0.377,-0.135
-6.445,-7.066,7.416,3.235,1.627,0.689
-4.332,-5.418,7.127,3.806,3.23,1.312
-4.284,-4.054,5.951,4.429,3.113,2.345
-5.58,-2.01,6.031,4.531,3.201,3.556
-8.649,-0.426,7.427,4.609,2.206,3.978
-11.055,0.212,10.099,4.146,1.662,4.128
-12.44,-0.706,14.218,3.25,0.11,3.573
-15.137,-6.437,18.934,1.467,-0.794,1.984
-17.696,-8.082,26.896,-1.054,-1.254,-0.362
-19.08,-5.159,33.304,-3.556,-0.751,-2.2
-21.815,3.162,33.614,-5.749,-0.241,-3.818
-17.443,10.146,29.793,-6.212,0.182,-4.26
-16.268,16.665,24.109,-5.23,-1.416,-4.127
-15.06,16.154,15.102,-3.268,-0.883,-2.917
-10.378,11.863,7.794,-1.159,-0.144,-1.502
-4.541,2.712,5.511,1.112,-0.747,-0.241
-6.814,-3.933,5.548,2.069,-0.738,0.23
-5.18,-5.682,6.585,2.605,1.542,0.963
-2.645,-3.967,6.749,3.419,1.73,1.616
-4.123,-2.751,5.468,4.439,0.977,1.989
-6.676,-1.942,5.648,4.71,1.858,2.654
-7.235,-1.03,5.503,4.461,2.294,3.188
-9.504,0.318,7.267,4.298,1.136,3.314
-13.877,0.138,10.743,3.71,0.99,2.858
-14.936,-2.132,16.573,2.036,1.075,1.993
-16.82,-4.442,23.023,-0.448,0.031,0.021
-23.0,-0.507,32.651,-2.644,-1.209,-2.449
-28.024,5.375,35.894,-5.055,-0.571,-4.681
-24.222,13.874,33.294,-6.87,-0.558,-5.765
-21.45,20.432,26.343,-6.251,-1.483,-5.686
-20.004,22.657,18.958,-3.985,-2.385,-3.976
-14.057,15.143,10.598,-1.831,-1.126,-2.138
-7.081,6.064,6.017,0.141,-0.947,-0.944
-6.001,-3.656,5.297,1.744,-0.656,-0.566
-5.513,-9.118,6.484,1.738,0.77,-0.511
-2.77,-9.69,5.738,1.737,2.607,-0.804
-1.724,-7.207,2.902,1.983,3.238,-0.095
-1.267,-5.638,2.033,2.321,3.968,1.452
-1.49,-4.567,1.254,2.594,3.84,2.992
-3.132,-3.039,2.047,2.816,3.075,4.258
-6.529,-1.26,4.988,3.017,2.047,4.826
-9.738,-0.155,12.614,2.641,0.624,5.049
-14.162,-5.478,18.146,1.503,-0.364,3.983
-19.293,-6.862,26.547,-0.743,-1.347,1.732
-24.083,-3.41,35.382,-3.034,-1.017,-0.799
-27.281,0.1,37.365,-5.557,-0.939,-3.343
-25.92,7.782,33.022,-6.915,-0.328,-5.204
-22.255,16.999,27.278,-5.843,-1.645,-6.135
-19.083,17.784,19.09,-3.52,-1.442,-5.478
-11.983,10.582,10.459,-1.189,-0.411,-3.835
-4.646,2.332,6.652,1.061,0.003,-1.829
-2.494,-8.149,3.781,2.349,0.431,-0.372
-1.281,-13.773,4.148,2.111,3.026,1.159
1.466,-14.058,4.315,1.874,4.558,2.252
1.134,-11.753,3.734,1.724,4.458,2.829
1.102,-7.905,2.667,1.633,4.646,3.451
1.01,-4.63,2.473,1.983,3.917,3.746
-0.436,-1.459,2.804,2.396,2.703,4.128
-6.265,1.577,5.776,2.973,1.147,4.507
-11.589,0.521,12.464,2.335,0.496,4.927
-16.116,-5.878,18.539,0.508,-0.545,4.068
-21.015,-6.11,28.074,-1.797,-0.236,2.3
-25.014,-2.698,34.672,-4.216,-0.25,-0.45
-26.779,4.778,35.197,-6.701,0.59,-2.624
-21.548,12.33,28.448,-6.695,0.184,-4.515
-20.849,21.371,24.161,-4.741,-0.451,-5.017
-17.64,18.747,16.863,-2.512,-0.196,-4.329
-11.124,10.795,10.573,-0.381,0.756,-2.415
-4.426,-1.769,7.14,1.457,1.025,-1.194
-4.496,-10.295,7.57,1.889,2.576,-0.245
-0.077,-14.471,7.103,1.52,5.095,0.521
2.874,-13.033,6.082,1.342,5.347,1.2
2.632,-9.569,5.144,1.257,4.891,1.71
3.512,-6.217,3.811,1.29,4.301,2.499
3.102,-3.73,2.604,1.48,2.665,3.244
0.737,-1.992,2.416,1.945,0.729,4.107
-4.624,-0.887,6.151,2.28,-0.597,4.842
-10.156,-3.412,13.138,1.821,-0.721,4.856
-14.077,-7.326,21.428,-0.216,-1.617,3.665
-20.14,-5.501,32.008,-2.385,-1.03,1.821
-24.645,-1.342,38.419,-4.77,-0.767,-1.038
-26.798,7.075,36.067,-6.972,0.272,-3.31
-21.178,16.802,28.748,-6.839,-0.36,-4.622
-19.816,23.064,21.513,-4.437,-0.807,-4.21
-14.972,12.971,15.055,-1.946,-0.806,-3.302
-9.388,6.219,9.06,0.268,-0.602,-1.837
-2.968,-4.931,7.349,2.056,-0.235,-1.07
-3.362,-14.045,7.584,2.385,1.259,-0.241
-0.742,-18.624,8.199,2.082,3.919,0.185
1.879,-11.753,5.594,1.636,4.652,0.781
3.269,-10.39,4.603,1.52,5.041,1.482
3.756,-8.327,3.897,1.529,4.153,2.324
3.098,-5.883,3.33,1.563,3.077,2.773
2.005,-3.858,2.996,1.672,1.492,3.418
-4.29,-2.541,5.609,1.828,-0.172,4.103
-11.241,-6.446,13.807,0.58,0.203,4.838
-16.791,-8.941,21.5,-1.399,0.542,3.717
-22.207,-6.506,30.578,-3.483,0.624,1.378
-29.723,-1.994,36.52,-5.257,0.951,-1.486
-24.318,7.539,35.607,-6.231,2.02,-3.393
-19.982,16.141,27.238,-5.238,-0.149,-5.715
-18.459,17.671,20.692,-3.166,-1.459,-5.514
-11.725,11.317,13.544,-1.373,-0.981,-4.177
-3.805,4.446,6.368,0.213,-0.826,-2.627
-3.468,-7.328,3.977,0.849,0.216,-1.599
-1.717,-13.525,5.062,1.002,2.938,-0.109
2.722,-13.334,5.242,0.887,5.012,0.643
2.434,-10.442,4.359,1.395,4.662,1.355
2.852,-8.509,4.959,1.657,4.74,2.084
1.844,-6.182,3.914,2.06,3.652,2.497
1.315,-4.046,2.912,2.308,3.062,3.281
-1.029,-3.185,3.903,2.67,1.675,4.317
-7.304,-4.752,9.293,2.262,0.874,5.145
-12.362,-9.553,15.889,0.377,0.751,4.741
-18.303,-10.621,25.276,-1.891,0.347,2.829
-25.533,-6.606,35.161,-4.132,-0.206,-0.078
-33.136,4.134,37.219,-6.269,0.251,-3.277
-25.502,14.411,32.506,-6.653,0.559,-5.039
-24.048,22.689,27.161,-4.28,-1.479,-5.662
-20.771,17.766,21.191,-1.959,-1.146,-4.825
-12.767,11.075,11.691,-0.112,-0.763,-3.242
-3.861,-1.839,8.227,1.433,0.213,-1.566
-4.803,-11.42,7.663,1.721,1.827,-0.586
-1.024,-15.295,7.068,0.946,4.868,0.425
3.527,-10.773,5.592,0.639,5.611,1.416
3.981,-8.058,5.126,0.99,5.426,2.399
4.336,-6.693,4.382,1.463,4.179,3.359
2.572,-5.038,3.459,1.805,2.965,3.965
0.834,-3.695,3.673,1.98,1.336,4.469
-5.462,-3.011,7.978,2.159,-0.217,5.158
-13.06,-5.666,15.612,0.987,-0.765,4.827
-17.277,-7.784,24.709,-1.215,-0.593,3.006
-23.367,-3.68,34.939,-3.353,-0.786,0.485
-31.369,2.05,41.372,-5.34,-0.389,-2.256
-26.943,12.048,37.865,-6.351,0.152,-4.544
-23.108,18.531,31.404,-5.054,-0.806,-5.842
-20.584,18.425,24.038,-2.783,-0.463,-5.092
-13.172,11.05,13.551,-0.754,0.227,-3.383
-4.467,2.021,7.647,0.989,1.246,-1.474
-3.833,-9.1,6.625,1.651,2.12,-0.232
-0.871,-14.558,6.453,1.278,4.501,0.827
2.187,-12.676,5.636,1.012,4.996,1.396
2.324,-9.953,6.394,1.187,4.359,1.52
3.188,-7.295,4.551,1.426,3.403,1.843
2.603,-5.091,2.939,1.804,2.876,2.187
2.431,-3.776,2.218,2.243,2.154,3.141
-0.937,-2.245,3.805,2.628,0.831,4.418
-8.126,-3.25,10.128,2.364,0.412,5.315
-12.833,-8.441,16.927,0.703,0.361,4.884
-17.187,-9.707,26.176,-1.519,0.174,3.221
-23.208,-5.874,33.065,-3.906,-0.053,0.569
-29.094,-0.389,34.825,-5.656,0.543,-2.757
-25.791,13.194,31.266,-6.689,1.121,-4.345
-24.471,23.527,26.466,-5.194,-0.416,-5.585
-21.153,21.68,17.928,-3.17,-1.29,-5.083
-12.499,15.052,9.292,-1.42,-0.279,-3.472
-5.892,5.153,5.26,-0.114,0.012,-1.667
-2.292,-9.065,3.491,0.63,1.477,-0.743
1.734,-15.387,2.883,0.581,3.509,0.709
3.57,-13.738,3.079,0.53,4.695,1.555
1.443,-10.419,4.293,0.921,3.997,1.862
3.098,-6.576,4.101,1.178,3.824,2.353
2.652,-4.344,2.523,1.782,2.219,2.611
1.592,-2.848,1.443,2.153,1.576,3.356
-1.291,-1.154,2.717,2.784,0.466,4.133
-6.668,-2.327,9.585,2.902,-0.017,5.059
-12.563,-6.417,17.722,1.625,-1.006,4.314
-18.255,-8.742,28.949,-0.631,-1.887,2.503
-24.912,-3.7,38.548,-2.964,-1.963,0.294
-31.591,4.127,41.098,-5.554,-0.492,-2.208
-23.447,13.133,35.823,-5.784,-0.73,-3.992
-21.652,20.304,30.404,-4.273,-1.706,-4.461
-18.289,16.985,22.757,-1.88,-0.353,-3.659
-10.841,9.428,13.517,0.197,0.535,-2.361
-2.346,-2.866,10.296,2.201,0.67,-0.94
-3.973,-13.736,9.199,2.019,2.175,-0.059
0.185,-18.65,7.711,1.489,4.667,0.815
3.298,-14.115,5.17,0.986,4.703,1.363
3.316,-12.08,4.94,0.908,4.112,1.58
3.918,-8.276,3.506,0.884,3.12,2.002
2.404,-4.897,2.662,1.052,2.051,2.214
2.127,-2.59,1.397,1.271,1.211,2.896
-0.262,-1.038,2.294,1.755,0.127,3.962
-7.31,-1.131,11.054,2.074,-0.552,5.001
-12.037,-3.956,20.367,0.533,-1.053,4.773
-18.738,-5.628,30.636,-1.483,-1.272,3.259
-24.82,-0.237,41.85,-3.609,-1.284,0.596
-32.14,6.11,43.771,-5.719,-0.748,-2.58
-25.049,14.782,36.593,-7.152,0.312,-4.364
-21.046,20.969,27.666,-5.647,0.102,-5.24
-15.849,22.873,18.524,-3.001,-0.254,-4.019
-11.68,11.83,8.527,-0.506,-0.136,-2.386
-2.76,0.546,6.554,1.138,0.728,-0.679
-3.382,-9.141,4.555,2.074,0.927,0.011
-2.437,-14.431,4.966,1.99,2.894,1.072
0.524,-16.267,4.958,1.29,4.558,1.28
3.373,-10.638,3.825,0.975,4.882,2.075
3.167,-5.854,2.288,1.469,4.087,3.038
2.776,-3.925,2.433,2.121,3.498,3.872
1.407,-1.251,2.508,2.791,2.322,4.776
-4.0,1.62,5.322,3.396,0.821,5.647
-11.143,1.571,13.322,2.987,0.118,6.138
-15.842,-1.888,20.08,1.508,-0.523,5.214
-20.472,-4.114,30.618,-0.964,-0.514,3.55
-27.174,0.572,43.739,-3.51,-0.2,0.695
-34.34,6.617,48.229,-6.06,-0.168,-2.542
-31.402,17.442,44.929,-7.829,0.738,-4.972
-26.246,26.59,37.741,-6.832,0.81,-5.461
-22.559,30.085,27.523,-3.93,0.279,-4.277
-16.905,17.859,17.043,-1.173,-0.344,-2.453
-7.556,6.245,10.863,1.048,0.112,-0.75
-4.366,-7.119,6.989,2.962,0.165,0.493
-5.186,-14.743,7.163,3.146,1.718,1.338
-3.156,-18.249,8.12,2.569,3.735,1.258
0.382,-12.687,6.043,2.151,5.005,1.767
2.692,-8.513,4.596,2.401,5.267,2.841
2.492,-5.699,3.815,2.915,4.803,4.006
2.254,-3.883,4.337,3.055,3.759,5.074
-1.601,-0.359,5.507,2.998,1.707,5.628
-8.151,2.401,12.653,2.277,-0.354,6.08
-15.015,-3.833,19.793,0.76,-0.7,5.399
-19.948,-6.278,31.831,-1.671,-1.005,3.443
-26.134,-0.827,46.974,-3.915,-0.166,0.49
-34.583,6.459,54.32,-6.182,0.647,-2.374
-26.557,16.625,50.551,-6.556,2.039,-4.564
-21.226,26.314,42.342,-5.221,0.609,-5.671
-20.062,25.629,31.76,-2.57,0.105,-4.592
-13.835,16.883,19.005,-0.288,0.245,-2.869
-4.476,4.527,10.711,1.943,0.224,-1.545
-6.836,-9.575,8.604,2.617,1.448,-0.459
-5.459,-14.838,11.13,2.239,4.152,0.542
-0.774,-13.916,11.801,1.571,6.416,0.889
1.563,-12.182,10.778,1.276,6.391,1.708
4.64,-9.088,9.507,1.12,6.071,3.416
3.802,-6.646,6.9,1.259,4.367,4.523
3.022,-5.247,4.838,1.211,2.995,5.893
-0.311,-1.892,6.118,0.592,0.582,6.738
-8.157,1.42,9.423,0.121,-1.054,6.458
-12.073,-0.076,15.187,-1.092,-1.823,5.375
-17.163,-3.856,22.587,-3.15,-0.975,3.87
-22.216,-1.813,35.551,-5.012,-0.527,0.813
-26.582,0.653,42.627,-6.376,0.523,-2.457
-27.236,9.139,42.744,-7.741,1.86,-4.926
-22.908,17.366,37.364,-6.945,2.401,-6.018
-19.171,22.552,29.331,-4.37,0.677,-6.044
-13.008,13.712,18.313,-2.209,1.453,-4.214
-5.008,8.412,6.39,-0.267,1.276,-1.923
-0.214,-4.54,1.456,1.579,1.144,0.194
-0.847,-12.985,2.976,1.938,3.063,1.805
2.023,-15.388,4.933,1.365,4.803,2.863
1.264,-8.755,3.793,1.62,3.94,3.455
0.075,-7.314,5.431,2.165,4.4,4.101
1.374,-4.971,5.232,2.615,3.957,5.079
-0.181,-3.028,3.698,2.615,2.226,6.009
-5.078,-0.81,5.808,2.506,1.058,6.363
-9.699,1.774,11.15,1.474,0.116,6.595
-14.314,-0.482,16.697,-0.096,-0.006,6.061
-17.906,-3.129,22.126,-2.37,-0.653,4.318
-22.423,-3.203,32.459,-4.387,1.078,2.204
-24.877,0.134,39.98,-6.281,1.988,-0.74
-28.728,7.272,42.723,-7.663,3.108,-3.699
-25.175,20.668,41.215,-7.961,3.296,-5.891
-20.063,29.706,34.346,-5.744,3.375,-5.742
-16.655,29.171,25.727,-2.797,0.606,-4.366
-12.017,20.824,17.862,-0.35,0.546,-2.447
-5.414,6.705,10.405,1.904,0.619,-1.111
-3.203,-7.235,7.979,3.104,1.632,0.502
-3.468,-15.275,10.023,2.657,3.03,0.998
-0.872,-16.121,8.758,1.737,5.214,0.59
1.704,-13.165,6.888,1.419,5.536,1.152
4.494,-8.421,6.133,1.298,5.224,2.405
4.181,-5.52,4.147,1.583,3.54,3.329
3.661,-3.324,3.578,1.857,2.239,4.064
1.7,-1.499,4.625,2.245,0.712,4.817
-5.323,0.585,10.552,2.143,-0.266,5.244
-12.484,-0.676,20.288,1.07,-0.436,4.865
-17.114,-4.825,27.832,-1.036,-1.791,3.418
-24.946,-2.396,39.163,-3.252,-0.158,2.016
-29.025,0.369,46.233,-5.668,0.897,-0.989
-27.785,11.758,46.801,-7.059,1.792,-2.692
-22.233,18.433,37.853,-6.367,0.648,-4.39
-20.041,23.889,30.578,-3.754,1.117,-4.009
-14.483,13.955,20.299,-1.485,-0.27,-4.058
-9.601,7.321,11.766,0.434,-0.011,-2.491
-3.81,-7.732,5.562,1.508,0.487,-1.779
-2.769,-14.706,5.037,1.544,2.348,-0.226
-0.471,-17.808,6.231,0.86,4.717,0.355
3.487,-11.738,6.256,0.567,5.881,1.599
5.308,-8.485,6.678,0.98,5.226,2.66
4.652,-6.413,5.501,1.6,3.936,3.43
3.928,-4.54,4.595,2.265,2.998,4.081
2.323,-2.929,4.762,2.72,1.46,4.763
-4.222,-0.871,7.731,3.059,-0.239,4.92
-10.778,-3.01,16.122,2.38,-0.943,5.189
-14.152,-8.927,24.699,0.05,-0.866,4.297
-21.931,-9.274,37.248,-2.403,-1.032,2.357
-27.071,-5.141,46.75,-4.785,-0.71,-0.588
-31.437,3.075,46.401,-7.102,0.806,-3.189
-21.863,13.548,38.931,-7.051,1.323,-4.666
-20.205,22.805,31.275,-5.075,0.474,-5.051
-14.872,17.217,20.437,-2.507,-0.161,-3.566
-10.019,9.835,9.455,-0.638,-0.116,-1.801
-1.664,-1.338,6.488,1.21,-0.047,-0.189
-5.212,-10.528,4.697,1.468,1.043,0.538
-3.509,-14.569,3.663,1.737,2.79,1.54
-0.471,-9.356,2.842,1.703,4.494,1.943
0.851,-6.436,3.412,2.457,5.01,3.043
1.572,-4.258,3.024,3.031,4.632,4.395
0.865,-2.697,2.712,3.392,3.497,5.485
-3.507,0.403,6.276,3.44,1.95,5.703
-9.963,1.913,13.896,3.207,0.292,5.432
-14.084,-6.992,21.039,1.53,-1.33,4.333
-21.641,-9.971,33.382,-0.893,-1.84,2.513
-29.655,-3.356,47.94,-3.215,-1.753,-0.724
-36.896,4.783,50.54,-5.508,-0.41,-3.354
-28.849,12.133,44.268,-6.412,0.136,-5.075
-27.631,25.881,36.46,-4.742,0.211,-5.457
-22.144,26.22,24.742,-2.332,0.205,-4.325
-14.271,14.823,11.975,-0.138,-0.109,-2.311
-5.075,0.796,6.858,1.749,-0.331,-0.851
-6.279,-9.507,4.371,2.068,0.771,0.303
-3.318,-15.069,4.236,1.368,2.357,0.931
-0.583,-13.297,3.842,1.135,3.241,0.996
-0.184,-9.392,3.227,1.405,4.142,1.637
1.805,-5.865,2.897,2.055,4.486,3.011
1.209,-4.217,3.474,2.605,4.304,4.372
0.444,-2.742,3.779,2.896,3.544,5.487
-3.413,-0.497,5.607,2.989,1.85,5.827
-9.176,0.746,10.784,2.825,0.655,5.681
-12.431,-3.203,16.613,1.892,-0.715,4.723
-17.217,-6.066,26.626,-0.373,-1.645,3.04
-24.782,-1.696,40.231,-2.581,-1.474,0.653
-30.263,3.408,46.884,-4.851,-1.093,-2.119
-28.476,13.696,44.785,-7.151,0.232,-3.763
-23.074,23.256,37.867,-6.922,-0.044,-4.516
-20.712,29.01,28.561,-4.054,-0.964,-4.191
-15.028,18.222,17.381,-1.511,-1.148,-3.086
-8.665,8.103,9.672,0.659,-0.907,-1.583
-5.406,-4.522,6.954,2.531,-0.781,-1.064
-7.105,-11.113,7.973,2.792,0.861,-0.599
-4.538,-15.048,7.605,2.048,3.335,-0.461
-1.742,-10.128,5.953,1.758,4.921,-0.001
1.455,-7.451,5.483,1.793,6.564,1.316
3.087,-6.098,4.648,2.012,6.342,3.128
2.719,-4.213,4.557,2.067,5.156,4.837
-2.151,-0.764,8.285,2.461,2.694,5.609
-6.548,-1.39,16.557,1.952,1.198,6.382
-12.104,-6.626,24.257,0.447,-1.87,5.108
-18.569,-7.364,36.472,-1.644,-3.227,3.44
-23.831,-3.366,46.749,-3.793,-2.536,0.931
-24.876,4.175,48.996,-6.31,-1.205,-1.342
-20.856,12.557,41.194,-6.827,-1.372,-3.656
-16.876,21.805,32.043,-5.323,-0.128,-3.737
-13.032,21.13,19.934,-2.969,-0.218,-3.243
-9.132,13.587,10.177,-0.671,-0.705,-2.299
-4.446,1.09,4.71,1.386,-0.446,-1.233
-4.008,-8.07,4.881,2.13,0.943,-0.284
-2.369,-12.548,6.419,1.918,2.447,0.1
0.216,-12.756,6.572,1.533,4.564,0.287
2.438,-9.876,5.532,1.213,5.819,1.261
3.967,-7.813,4.714,1.493,5.389,2.405
3.544,-5.243,3.24,1.744,4.219,3.652
2.123,-3.386,2.935,2.01,2.993,4.79
-3.014,-0.024,7.063,2.209,1.225,5.522
-8.863,0.07,14.47,2.302,-0.686,5.442
-12.248,-6.024,21.408,0.82,-0.462,4.595
-18.174,-7.169,32.175,-1.403,-1.373,2.761
-22.978,-2.423,44.242,-3.661,-1.411,0.123
-29.557,3.56,45.669,-5.829,-0.821,-2.817
-24.784,14.355,39.768,-7.089,0.3,-4.437
-21.561,24.452,30.89,-5.262,-0.836,-4.962
-18.482,24.61,21.923,-2.513,-0.691,-3.922
-13.383,14.952,12.553,-0.157,0.076,-2.286
-3.666,5.095,7.567,1.916,-0.217,-0.602
-3.448,-7.47,6.786,3.08,0.726,0.229
-3.293,-11.741,9.034,2.66,2.777,0.918
-0.256,-12.046,8.08,2.375,4.764,1.106
0.282,-8.108,5.419,2.49,5.397,1.965
0.957,-6.069,3.954,2.95,5.757,3.24
-0.552,-4.525,3.852,3.415,4.865,4.505
-4.185,-1.55,6.143,3.165,3.907,5.532
-9.068,1.721,12.2,2.718,1.647,5.668
-14.407,-1.453,16.925,1.751,-0.492,4.639
-18.602,-4.747,26.194,-0.781,-0.082,2.944
-24.84,1.12,39.805,-3.223,-0.748,-0.149
-31.426,6.83,46.477,-5.233,-0.818,-3.168
-30.288,14.446,42.836,-7.18,0.349,-5.065
-25.382,24.687,37.07,-6.976,0.43,-5.86
-22.765,30.854,27.561,-4.09,-1.031,-5.417
-17.03,19.189,14.822,-1.447,-0.318,-3.545
-7.173,8.587,6.28,0.602,-0.214,-1.682
-4.387,-2.851,3.612,2.51,-0.377,-0.921
-4.236,-10.038,3.901,2.931,1.12,-0.22
-2.669,-13.042,4.471,2.508,2.859,0.145
-0.845,-7.473,3.509,2.487,3.709,0.902
-0.987,-4.323,2.938,3.098,4.114,2.048
-1.154,-2.243,2.827,3.957,4.216,3.837
-3.584,-0.538,5.131,4.355,3.584,5.584
-10.118,3.67,12.088,4.317,2.572,6.293
-14.632,2.555,19.703,3.326,0.274,5.357
-18.792,-1.024,28.585,0.666,0.039,3.626
-23.499,6.512,41.692,-2.171,-0.21,0.823
-28.746,11.469,48.76,-4.698,-0.808,-2.27
-26.673,15.226,44.726,-7.123,-0.546,-4.509
-21.084,24.75,36.993,-7.582,0.462,-4.744
-17.121,31.284,27.857,-5.398,-0.655,-4.499
-14.032,21.83,15.14,-2.649,-1.669,-2.886
-8.081,12.468,7.447,-0.453,-0.095,-1.409
-4.327,2.091,5.83,1.811,0.302,-0.182
-5.952,-8.022,6.086,2.754,1.3,0.221
-6.259,-13.832,6.294,2.782,2.923,0.737
-4.36,-13.917,6.324,2.106,5.276,0.974
-1.898,-11.899,5.418,1.901,5.452,1.592
0.005,-9.581,4.077,1.677,5.233,2.471
0.797,-7.6,3.382,1.701,4.209,3.428
0.922,-4.885,3.731,1.736,3.08,4.563
-1.035,-2.256,5.726,2.09,0.79,5.532
-6.6,-2.4,13.157,1.545,-0.871,5.914
-12.514,-4.622,21.572,-0.329,-3.063,4.879
-16.793,-1.567,34.075,-2.469,-2.778,3.252
-21.268,2.679,42.957,-4.716,-3.42,0.846
-24.026,9.722,44.434,-7.143,-2.436,-1.534
-19.816,17.542,37.261,-7.705,-1.901,-3.075
-15.136,22.806,28.408,-5.844,-0.189,-3.03
-12.758,17.128,16.091,-3.51,-0.56,-2.244
-8.8,9.855,7.503,-1.47,1.186,-1.021
-3.872,0.046,3.502,0.587,1.742,0.254
-4.137,-8.605,3.208,1.838,2.572,1.024
-3.237,-12.423,4.364,1.926,3.927,1.882
-1.239,-10.542,4.228,1.875,4.664,2.515
-0.213,-9.009,3.357,2.15,4.458,3.277
0.396,-7.947,3.178,2.287,3.997,4.076
0.25,-6.015,3.003,2.448,2.849,4.726
-2.413,-3.715,4.016,2.672,1.329,4.902
-6.085,-2.857,9.4,2.49,0.298,5.098
-10.564,-3.252,16.358,1.448,-1.643,4.185
-15.261,-4.431,26.438,-0.747,-2.623,2.88
-18.468,-0.927,37.245,-3.044,-3.198,1.304
-21.424,3.49,42.484,-5.38,-4.006,-0.329
-20.276,10.995,40.366,-7.224,-3.184,-1.949
-16.184,17.108,33.819,-6.854,-2.183,-2.492
-13.126,19.56,23.658,-4.626,-1.649,-2.469
-9.337,13.331,13.381,-2.468,-0.096,-1.728
-4.619,5.431,7.099,-0.336,1.38,-0.854
-2.36,-3.716,4.541,1.533,1.804,-0.004
-2.071,-9.52,4.21,2.211,2.848,0.875
-0.764,-11.632,4.74,2.502,4.268,1.696
-0.795,-9.932,3.707,2.836,4.639,2.461
-0.418,-9.075,3.183,3.081,4.998,3.285
-1.228,-7.75,2.187,3.328,4.4,3.914
-2.9,-5.477,3.544,3.055,4.161,4.565
-5.88,-2.043,5.773,2.703,2.474,4.491
-9.935,-0.311,13.131,1.973,-0.044,4.158
-13.598,-3.08,19.618,0.595,-1.302,3.24
-16.646,-4.795,31.236,-1.781,-3.197,1.899
-19.697,-1.9,40.125,-3.827,-3.729,0.667
-23.391,3.16,43.107,-5.994,-2.608,-0.914
-19.062,10.112,37.13,-7.016,-0.324,-1.966
-14.847,18.094,30.868,-6.087,-0.228,-2.357
-12.827,20.693,19.572,-3.286,0.274,-1.902
-10.532,12.439,9.713,-1.172,0.754,-1.58
-3.945,3.606,4.661,0.859,0.935,-0.218
-4.139,-5.962,3.833,2.194,0.436,0.241
-4.583,-10.368,3.646,2.463,1.687,0.919
-2.803,-11.135,3.688,2.075,3.615,1.589
-0.184,-6.978,3.535,2.443,4.063,2.55
0.198,-4.706,2.91,3.035,3.516,3.487
-0.747,-2.06,3.043,3.846,2.961,4.932
-4.142,0.071,5.715,4.28,1.95,5.751
-7.575,3.744,12.556,4.029,-0.087,5.811
-10.553,2.946,19.453,3.496,-1.962,4.925
-11.737,-1.63,25.721,1.345,-2.788,3.799
-12.249,-1.841,35.311,-1.541,-2.733,2.86
-11.436,0.301,41.018,-4.172,-2.184,1.327
-12.617,0.905,39.826,-6.333,0.113,-0.45
-9.032,14.292,38.101,-7.674,1.808,-0.942
-7.125,23.373,31.055,-6.124,1.919,-1.367
-8.148,22.617,21.009,-3.354,0.654,-1.328
-8.453,15.585,14.695,-1.229,1.299,-0.914
-4.856,8.266,9.335,0.733,0.375,-0.061
-6.782,-5.522,4.483,1.967,0.753,-0.008
-6.549,-11.09,5.604,1.874,2.598,0.506
-3.149,-11.08,5.757,1.269,4.589,0.601
-0.006,-7.907,3.271,1.302,4.312,1.536
1.655,-4.632,2.647,1.532,4.538,3.009
2.056,-2.214,2.572,2.258,2.773,4.47
-2.09,-0.503,5.025,3.045,0.943,5.309
-4.916,0.24,11.27,2.965,-0.661,5.852
-7.669,-0.485,18.464,2.555,-2.97,5.182
-9.342,-3.547,25.889,0.775,-3.975,4.3
-11.4,-4.423,34.566,-1.794,-3.417,3.537
-11.632,-2.369,41.168,-4.51,-2.106,2.085
-15.125,4.123,41.028,-6.595,0.388,-0.197
-10.387,12.075,34.647,-6.767,2.362,-0.909
-9.326,17.507,26.74,-5.184,2.34,-1.377
-9.937,13.465,17.209,-2.94,1.698,-1.646
-7.94,7.927,8.729,-1.09,2.071,-0.838
-3.191,-0.663,2.538,0.753,0.875,0.378
-6.298,-8.753,1.986,1.152,1.333,1.14
-6.488,-11.902,2.943,1.174,3.189,1.926
-2.557,-8.205,3.127,0.974,4.766,2.861
-1.015,-5.796,1.927,1.262,3.819,3.834
-0.17,-4.358,1.265,1.496,3.626,5.408
-1.319,-2.015,1.688,1.632,2.289,6.61
-6.64,1.164,4.321,1.909,0.061,6.717
-10.362,2.013,10.236,1.438,-2.336,6.246
-14.958,-1.286,16.346,0.465,-4.225,5.007
-17.868,-2.327,23.543,-1.612,-4.714,3.423
-19.485,-0.926,33.934,-3.723,-3.886,1.553
-18.681,-0.044,38.622,-6.016,-2.867,-0.136
-19.367,6.667,37.508,-7.589,0.003,-1.734
-12.83,15.841,31.611,-7.233,1.644,-2.337
-10.579,20.447,24.539,-5.022,1.597,-2.367
-9.753,15.375,13.695,-2.62,0.548,-1.61
-7.645,9.214,7.62,-0.463,1.085,-0.582
-5.702,-1.138,3.601,1.391,0.296,0.139
-8.621,-8.181,3.862,1.684,1.481,0.507
-7.222,-12.106,4.682,1.33,3.076,0.79
-3.72,-9.908,4.642,0.931,4.563,1.083
-0.742,-7.26,2.657,0.877,4.627,2.0
1.467,-4.012,1.747,1.116,4.415,3.565
1.487,-2.113,1.334,1.53,3.034,5.0
-1.724,-0.36,2.924,1.878,1.38,6.397
-9.471,2.205,8.273,2.104,-0.718,6.897
-15.934,-1.328,14.315,0.917,-1.692,6.38
-23.573,-3.173,22.674,-1.177,-1.89,4.319
-30.738,1.828,31.886,-3.404,-1.511,1.199
-35.567,6.481,36.706,-5.61,-0.946,-2.292
-31.444,14.388,35.323,-7.795,1.039,-4.48
-22.805,24.336,29.724,-7.077,1.257,-5.546
-16.222,28.944,21.386,-4.362,0.389,-4.831
-12.591,13.968,13.097,-1.9,-0.789,-2.429
-7.895,4.81,7.903,0.009,0.069,-0.754
-5.143,-6.801,3.945,1.744,-0.106,-0.069
-8.365,-14.116,3.675,2.093,0.593,0.336
-6.875,-17.521,4.264,1.367,2.862,0.737
-1.061,-8.843,3.625,1.036,4.718,0.841
2.299,-5.752,1.693,1.379,3.802,1.858
1.873,-4.217,1.416,1.98,3.136,3.242
1.312,-2.966,1.788,2.413,2.767,4.62
-2.197,-1.244,3.405,2.601,0.962,5.454
-8.146,0.258,9.001,2.484,-0.237,5.874
-15.023,-2.973,14.809,1.999,-1.741,4.971
-18.913,-6.326,25.311,-0.381,-0.852,3.461
-23.982,-3.435,36.947,-2.798,-1.131,0.671
-27.403,1.841,42.467,-4.974,-0.461,-2.067
-24.371,13.326,40.65,-6.542,0.654,-3.514
-17.891,21.247,33.963,-6.069,1.137,-4.297
-16.911,23.436,23.741,-3.793,-1.419,-3.602
-13.154,17.992,13.745,-1.707,-0.222,-2.227
-7.257,9.334,8.301,0.234,0.25,-0.779
-6.488,-4.798,5.081,1.75,-0.442,-0.778
-6.909,-9.644,5.948,1.574,1.248,-0.061
-3.176,-9.044,5.881,1.597,4.149,0.006
-0.027,-6.945,4.347,1.996,4.143,0.928
1.062,-5.279,2.916,2.692,3.874,2.103
1.373,-3.843,2.047,3.362,3.478,3.444
-0.043,-3.594,4.005,3.703,2.419,4.516
-4.455,-1.721,8.171,3.651,0.66,4.714
-8.501,-1.69,15.572,3.203,-1.057,4.719
-12.713,-10.52,23.1,1.786,-1.251,3.636
-19.732,-12.759,37.201,-0.846,-2.393,1.93
-24.141,-7.315,49.22,-3.25,-1.074,0.033
-28.61,2.89,50.513,-5.497,0.273,-1.903
-21.3,12.629,44.32,-5.662,0.744,-3.339
-19.811,25.616,36.054,-4.299,-0.767,-4.201
-16.581,23.561,23.006,-2.029,0.306,-3.04
-11.528,15.54,10.523,-0.1,0.279,-1.951
-4.478,1.186,5.993,1.84,-0.003,-0.882
-7.608,-8.917,4.909,1.813,1.135,-0.185
-5.037,-12.671,4.789,1.445,2.81,0.845
-0.426,-8.21,4.023,1.608,3.956,0.995
0.971,-5.585,3.016,2.352,3.384,1.761
1.799,-2.543,2.426,3.222,2.785,3.137
-1.086,-1.922,2.935,4.204,1.684,4.067
-4.598,-1.083,5.814,4.479,1.428,4.904
-9.867,0.11,13.003,4.347,0.729,5.017
-15.723,-3.669,21.145,3.46,-1.153,3.968
-19.402,-8.15,34.294,0.649,0.44,2.513
-30.444,-1.055,48.932,-2.176,0.728,-0.258
-38.766,11.128,59.493,-4.668,1.333,-3.086
-29.834,25.096,55.938,-5.806,1.788,-4.912
-24.978,32.649,46.177,-5.079,2.144,-5.49
-27.429,33.632,34.243,-2.631,-0.142,-4.407
-16.583,23.817,20.237,-0.562,0.778,-2.372
-6.236,9.461,8.161,1.475,1.006,-0.483
-9.568,-6.758,4.609,2.468,1.34,1.128
-8.84,-10.709,5.976,2.44,2.929,2.243
-2.029,-7.556,5.014,2.715,4.263,2.435
-0.497,-4.643,3.235,3.613,3.362,3.225
-1.227,-3.857,2.108,4.457,2.516,4.337
-4.106,-2.654,1.462,4.794,1.997,5.196
-9.073,-0.755,4.355,4.415,2.075,5.37
-14.241,0.295,13.752,3.702,0.92,5.108
-18.707,-7.847,25.534,1.762,-0.458,3.508
-30.11,-8.362,41.008,-1.12,-1.573,1.271
-39.29,0.057,56.81,-3.612,-1.733,-1.925
-42.749,13.169,60.772,-5.717,-1.296,-3.702
-34.019,19.519,50.989,-5.717,-1.056,-5.181
-30.544,31.319,39.214,-3.92,-1.028,-5.11
-22.062,28.323,23.623,-1.5,-1.11,-3.51
-12.76,16.966,9.71,0.706,-0.143,-1.183
-5.902,-0.364,4.302,2.837,-0.339,-0.046
-8.8,-9.077,4.665,2.835,0.673,1.243
-7.408,-13.574,4.583,2.48,1.911,1.983
-3.051,-9.797,5.039,2.618,4.132,2.026
-0.319,-6.748,3.965,2.992,4.052,2.73
1.262,-3.277,2.222,3.584,3.269,4.202
-1.176,-1.912,2.93,4.364,2.165,5.257
-8.213,1.091,6.376,4.507,1.463,5.762
-11.682,0.357,14.914,3.205,1.146,6.256
-17.394,-3.288,22.057,2.134,-1.695,3.991
-20.679,-7.368,33.702,-0.588,-2.128,1.751
-27.534,-1.931,47.947,-3.377,-2.127,-0.786
-31.975,5.338,54.363,-5.988,-1.447,-3.328
-27.334,17.966,48.944,-6.671,-1.513,-4.91
-23.036,25.894,40.018,-5.848,-0.623,-4.149
-24.867,27.674,29.28,-3.337,-1.747,-2.23
-20.052,19.04,15.733,-1.186,0.23,-1.087
-8.717,7.557,6.94,0.863,1.269,0.759
-9.362,-4.533,4.287,2.453,1.24,1.419
-7.831,-8.413,6.1,2.548,2.898,2.491
-2.769,-6.672,6.099,2.818,4.77,2.317
0.592,-3.114,4.347,3.602,3.766,3.589
-0.17,-0.853,4.222,4.368,2.581,5.113
-5.039,0.953,6.282,4.865,0.865,5.921
-10.326,0.839,11.08,4.215,0.369,5.997
-14.515,0.027,17.087,3.525,-0.826,4.882
-15.7,-7.562,23.896,1.255,-1.222,3.135
-19.593,-9.004,34.959,-1.559,-1.638,0.823
-21.401,-5.023,44.295,-4.22,-0.928,-1.364
-26.254,3.421,44.791,-5.998,-0.598,-3.834
-19.229,15.062,39.762,-6.676,0.475,-4.483
-19.219,26.798,31.994,-4.432,-0.587,-4.678
-18.38,24.354,23.286,-1.67,-0.864,-3.134
-13.907,16.323,15.046,0.487,0.221,-1.799
-5.332,4.666,10.835,2.501,0.204,-0.544
-8.713,-7.356,9.819,3.127,0.842,0.125
-6.866,-12.055,10.99,2.592,2.832,1.034
-2.183,-8.806,8.575,2.544,4.419,0.886
-0.04,-5.936,5.017,3.104,4.178,1.844
0.595,-2.75,4.302,3.755,3.577,3.514
-1.641,-1.838,7.171,4.388,1.856,4.573
-5.223,-1.174,12.29,3.927,0.591,4.918
-8.496,-2.567,17.251,3.032,-0.636,4.508
-11.269,-8.284,24.583,0.713,-1.545,3.281
-16.494,-8.864,36.608,-1.953,-1.517,1.23
-19.372,-2.977,44.53,-4.624,-0.758,-1.191
-20.617,8.875,44.864,-6.538,0.516,-2.219
-15.216,16.259,38.058,-6.39,0.612,-2.773
-14.836,24.053,30.76,-4.005,-0.559,-2.583
-14.446,18.652,19.817,-1.547,-0.937,-1.82
-10.704,10.397,10.951,0.526,0.002,-0.345
-6.843,-2.796,5.728,2.563,-0.292,-0.172
-9.623,-8.933,7.346,2.858,1.089,0.335
-7.534,-11.275,7.418,2.623,3.647,0.91
-2.261,-5.563,5.875,2.834,4.946,2.018
-0.584,-2.571,3.835,3.467,4.185,3.551
-2.641,-0.461,5.737,4.252,2.413,4.777
-7.9,-0.129,9.855,4.458,0.97,5.238
-11.06,-2.225,14.923,3.688,-0.013,4.974
-14.707,-7.253,20.889,1.567,-1.182,3.52
-19.917,-7.931,31.374,-1.139,-1.35,1.177
-23.005,-4.438,39.505,-3.961,0.019,-1.174
-25.253,6.808,39.8,-6.428,0.782,-3.274
-19.736,17.671,35.108,-7.025,0.892,-4.398
-16.858,25.88,27.766,-5.276,0.348,-4.808
-14.434,24.5,16.88,-2.976,-0.949,-3.448
-11.529,16.51,7.761,-0.871,-0.329,-2.237
-4.103,3.671,4.957,0.98,0.178,-0.989
-7.055,-5.473,4.483,1.853,-0.03,-0.426
-7.344,-8.815,5.316,1.702,1.714,0.405
-4.1,-7.513,5.353,1.727,4.603,0.474
0.117,-4.87,4.277,2.103,4.72,1.669
1.394,-3.13,2.677,2.814,3.758,3.128
0.836,-2.057,3.597,3.595,2.783,4.596
-3.139,-0.858,8.66,4.058,1.297,5.437
-7.677,-1.059,15.834,3.325,-0.407,5.867
-14.104,-5.771,20.143,1.669,-1.523,4.788
-20.451,-6.933,28.785,-0.893,-1.262,2.731
-25.57,-3.242,38.13,-3.726,-0.283,-0.135
-29.487,4.686,38.654,-6.338,0.447,-2.89
-23.079,14.678,32.799,-6.921,1.362,-4.49
-18.237,23.693,27.053,-5.537,0.663,-5.052
-15.95,23.745,18.288,-3.303,-1.254,-3.786
-12.109,16.504,9.137,-1.433,-0.213,-2.35
-3.512,5.82,4.561,0.379,0.496,-0.577
-5.83,-4.184,2.97,1.387,0.145,0.127
-5.779,-8.109,3.723,1.42,1.699,1.049
-2.217,-7.07,3.685,1.566,4.496,1.368
0.844,-3.964,2.501,2.254,3.798,2.593
1.107,-2.447,2.136,3.118,2.661,3.943
-0.784,-1.555,4.238,3.887,1.516,5.007
-4.997,-1.45,10.158,3.841,0.458,5.496
-9.745,-3.537,16.817,3.219,-1.553,5.039
-12.941,-8.171,23.661,1.279,-2.119,3.817
-18.773,-9.407,34.293,-1.396,-2.565,1.924
-22.625,-4.291,44.82,-4.181,-1.753,-0.425
-25.172,7.7,43.782,-6.377,-0.872,-2.395
-18.18,17.151,36.057,-6.069,0.186,-3.335
-17.342,22.691,27.759,-4.406,-1.305,-3.179
-15.152,18.212,18.4,-2.19,-0.15,-2.541
-10.234,10.878,7.775,-0.316,0.84,-1.177
-3.339,-1.767,3.529,1.624,1.141,0.188
-5.615,-9.465,4.699,1.708,2.286,1.45
-3.128,-10.881,6.074,1.88,4.882,2.406
0.904,-5.286,4.841,2.124,4.729,3.498
1.527,-3.755,2.779,2.81,3.259,4.567
-0.466,-2.182,4.704,3.36,1.758,5.505
-7.122,-0.697,12.126,3.87,-0.284,5.416
-11.022,-4.414,18.046,3.201,-1.765,4.472
-14.104,-9.559,25.871,0.741,-1.977,3.1
-21.02,-7.777,40.356,-1.819,-2.285,0.773
-25.154,-2.99,48.175,-4.309,-1.365,-1.994
-21.34,8.031,44.889,-6.945,0.156,-2.778
-17.324,17.426,37.524,-6.325,-0.052,-3.495
-17.879,21.898,29.04,-3.652,-2.006,-2.933
-13.093,16.794,17.157,-1.462,-0.33,-2.191
-7.74,8.651,8.366,0.465,0.232,-0.704
-5.144,-4.337,4.542,2.411,0.62,-0.375
-5.138,-9.922,6.491,2.208,2.607,0.752
-0.899,-9.444,7.81,2.022,5.303,1.217
2.461,-6.38,5.637,2.311,4.685,2.408
2.784,-3.257,3.838,3.046,3.742,3.666
0.388,-2.098,4.469,3.844,2.285,4.794
-5.445,-0.271,7.556,4.101,0.717,5.163
-12.264,-1.333,12.358,3.762,0.299,4.945
-15.098,-8.307,20.752,2.277,0.263,4.054
-20.541,-12.061,34.486,-0.384,-0.026,1.855
-26.808,-4.535,48.212,-3.153,0.203,-1.18
-28.567,7.032,49.354,-5.612,0.917,-2.918
-22.482,15.585,42.339,-6.098,0.096,-4.249
-25.07,24.27,33.024,-4.7,-1.97,-4.265
-22.399,24.327,21.857,-2.387,-0.705,-3.554
-13.93,15.385,9.769,-0.194,0.721,-1.691
-6.823,0.649,6.449,2.152,0.435,-0.904
-7.729,-6.984,7.766,2.969,1.489,0.122
-3.57,-8.505,9.156,3.29,4.584,0.679
0.567,-6.137,8.271,3.72,4.935,2.184
1.199,-4.69,5.433,4.132,3.42,3.249
-0.332,-2.063,5.198,4.413,2.574,4.343
-5.207,0.186,11.148,4.502,1.24,4.401
-7.104,-2.961,22.915,3.537,-0.035,4.926
-8.054,-10.429,35.951,0.793,-2.045,2.993
-7.401,13.38,1.515,-0.116,-0.426,-1.2
-3.342,5.233,2.086,1.029,-1.325,-1.182
-3.809,-0.315,3.872,1.608,0.082,-1.66
-2.76,-4.933,6.702,1.935,1.572,-1.232
-2.395,-7.038,7.374,2.031,2.039,-0.803
-0.841,-14.729,7.277,2.498,3.204,0.796
2.424,-16.701,7.12,1.844,5.031,1.186
3.654,-12.198,5.872,1.831,4.12,2.013
2.895,-8.276,3.388,2.149,2.762,1.999
2.524,-6.535,2.835,2.662,2.481,2.143
2.361,-4.931,1.933,2.746,1.682,2.673
0.686,-2.983,1.653,2.838,0.619,3.356
-5.144,0.371,6.49,2.957,-0.146,4.121
-8.869,-0.871,19.588,1.835,-0.576,5.205
-12.645,-8.302,29.155,-0.52,0.031,4.935
-21.086,-2.987,45.161,-2.744,0.885,2.682
-32.153,7.885,60.262,-5.054,1.486,-0.154
-24.186,21.266,60.319,-6.884,1.934,-2.303
-21.413,29.387,45.588,-5.762,2.145,-4.039
-20.714,34.953,37.355,-2.975,-0.395,-3.302
-16.033,25.266,25.023,-1.063,-0.205,-2.31
-5.187,12.18,11.165,0.463,0.425,-0.955
-8.083,-4.061,6.773,1.536,1.635,0.118
-6.83,-10.976,9.833,1.194,3.159,0.796
-2.854,-9.937,10.066,0.743,5.996,0.172
2.145,-6.366,7.982,1.159,5.492,1.375
3.162,-5.309,6.356,2.256,4.399,2.521
2.826,-5.787,5.765,3.139,3.517,3.288
2.271,-5.654,3.299,3.372,2.391,4.087
0.044,-4.327,3.029,3.529,0.729,4.742
-7.443,-0.512,7.205,4.248,-0.447,4.404
-10.503,-2.23,19.485,3.289,0.025,5.184
-13.612,-9.959,28.472,0.732,-1.035,4.211
-20.85,-7.789,44.856,-1.55,-1.127,2.225
-28.682,-1.117,59.13,-4.043,-0.212,-0.593
-25.379,11.751,61.768,-7.09,1.341,-2.176
-20.977,21.068,47.854,-6.976,-0.043,-4.517
-20.788,31.174,37.285,-3.484,-0.435,-4.017
-18.594,21.699,24.123,-1.024,-0.802,-3.182
-11.703,10.181,11.545,0.837,-0.216,-1.595
-8.605,-6.823,4.818,2.471,0.067,-0.763
-9.82,-14.382,7.129,2.572,1.87,-0.029
-6.063,-17.333,9.484,0.985,4.408,0.051
-0.004,-10.858,8.515,0.656,5.592,0.506
3.268,-7.196,5.642,1.006,5.184,1.383
3.936,-5.976,4.471,1.789,4.525,2.345
4.396,-5.08,3.3,2.28,3.945,3.542
3.633,-2.793,1.657,2.81,2.228,4.351
0.398,-0.901,3.135,3.208,0.712,5.326
-7.085,-1.724,17.854,3.255,-0.16,5.841
-11.732,-11.498,29.497,0.838,-1.656,4.911
-19.894,-8.443,45.475,-1.532,-1.226,3.538
-31.011,-3.186,59.926,-3.967,-0.512,0.569
-30.935,12.043,67.417,-6.496,1.024,-1.811
-23.804,22.045,52.894,-7.087,1.031,-3.83
-21.887,32.306,39.12,-3.637,0.894,-3.312
-20.096,23.347,26.089,-1.161,0.173,-3.371
-10.471,13.356,16.436,0.59,1.003,-1.704
-7.656,-3.595,7.061,2.198,1.159,-0.904
-7.257,-12.082,7.357,2.477,2.698,0.107
-3.771,-12.962,10.294,1.222,5.233,0.537
3.044,-7.348,8.007,1.18,5.859,1.943
4.319,-3.32,3.848,2.068,4.854,3.362
2.842,-1.905,2.296,2.969,3.914,5.155
-0.821,-0.462,4.035,3.461,1.964,6.428
-9.7,1.095,10.048,4.214,0.268,6.455
-14.505,-2.599,20.007,3.429,-0.869,5.557
-16.784,-8.289,32.646,0.79,-0.678,4.153
-28.605,-1.301,48.737,-1.719,0.079,1.152
-38.159,9.186,59.883,-4.156,0.888,-2.091
-30.059,24.163,56.838,-6.511,1.781,-4.048
-26.448,33.306,44.873,-5.883,1.988,-4.831
-26.292,36.975,33.364,-3.326,-0.194,-3.896
-15.815,26.139,20.963,-1.215,-0.588,-2.987
-3.968,11.8,9.751,0.687,0.191,-1.545
-4.029,-4.43,5.702,1.978,0.504,-0.246
-3.411,-10.117,6.999,2.007,1.879,0.798
-0.35,-9.196,6.507,2.066,4.711,0.753
2.089,-5.92,3.608,2.529,4.951,2.455
1.408,-3.577,0.704,3.185,4.229,4.162
-0.528,-2.703,1.095,3.727,3.542,5.467
-5.677,0.474,4.756,4.268,2.161,5.863
-12.511,3.769,13.889,3.754,0.465,6.092
-15.757,-3.838,22.525,2.354,-0.144,4.577
-24.655,-4.783,38.714,-0.204,-1.501,2.59
-31.927,8.545,54.099,-2.63,-0.806,-0.609
-32.561,21.748,59.997,-5.477,0.731,-2.929
-23.766,27.526,49.22,-6.106,0.885,-5.148
-22.539,39.117,38.277,-4.01,0.151,-5.089
-16.607,34.586,24.529,-1.369,0.899,-3.629
-10.34,17.538,12.513,0.684,0.678,-1.803
-4.941,-0.88,5.742,2.482,0.477,-0.601
-6.908,-9.806,7.157,2.902,1.236,0.466
-5.4,-14.357,9.13,1.695,2.716,0.863
-0.71,-9.359,7.544,1.258,4.96,0.932
2.592,-6.505,4.551,1.63,5.235,2.253
2.942,-3.374,1.67,2.153,4.795,4.26
1.318,-1.596,0.849,2.606,4.046,6.052
-4.167,1.131,6.78,2.841,2.432,7.315
-12.913,-1.331,15.412,2.784,0.267,6.599
-16.035,-4.53,23.439,0.359,-0.213,5.278
-25.878,-4.705,37.474,-1.962,-0.718,2.718
-34.892,2.205,53.358,-4.31,0.248,-0.723
-33.418,16.153,56.779,-6.608,1.978,-3.803
-21.222,28.141,47.063,-7.17,1.616,-4.58
-19.02,36.854,38.177,-4.455,0.305,-3.624
-18.365,35.064,30.39,-0.962,-1.546,-2.09
-11.493,22.658,20.327,1.093,-1.492,-0.711
-9.281,4.135,13.328,2.659,-1.646,0.015
-13.578,-5.087,14.934,2.773,0.089,-0.007
-13.337,-10.39,15.298,2.026,1.999,-1.298
-3.897,-8.977,10.05,0.737,5.07,-1.752
0.316,-4.593,5.361,1.104,5.625,-0.293
2.963,-1.114,2.836,1.796,5.314,2.019
3.277,0.847,1.87,2.419,4.27,4.335
-0.619,3.422,4.735,3.08,1.949,6.056
-8.314,4.226,13.336,3.052,-0.087,7.0
-15.153,-3.523,21.447,1.652,-1.412,5.647
-20.376,-8.442,37.253,-0.606,-2.624,3.33
-29.427,-2.89,53.03,-2.928,-1.251,0.709
-36.572,9.01,60.084,-5.557,0.424,-2.408
-26.128,17.764,52.52,-6.405,1.227,-4.411
-23.235,31.414,42.652,-4.729,0.628,-4.417
-22.985,33.662,28.422,-2.124,0.513,-2.688
-16.455,23.876,16.362,0.161,0.088,-1.714
-6.636,5.661,10.048,2.371,0.546,-0.399
-9.175,-5.223,9.67,3.015,1.376,0.348
-5.824,-12.475,11.159,2.525,2.938,0.805
-0.109,-11.666,10.838,2.233,5.117,0.638
3.811,-9.943,7.351,2.351,4.972,1.617
4.507,-6.013,3.616,2.62,4.338,3.235
3.042,-4.467,1.693,3.097,3.52,4.869
-1.131,-1.262,3.458,3.678,1.994,6.067
-9.742,0.035,12.167,3.351,1.0,6.666
-16.495,-8.697,22.77,2.443,-0.798,4.761
-22.099,-10.593,38.406,-0.036,-0.354,2.913
-32.01,-2.958,54.789,-2.485,-0.402,-0.369
-38.374,8.174,63.141,-5.274,0.698,-3.505
-28.776,23.783,56.783,-6.081,0.417,-5.648
-34.12,-1.013,18.104,0.581,-0.482,1.023
-10.931,-9.558,23.966,-0.902,-1.616,0.632
-4.715,21.209,4.728,-1.13,0.038,-0.981
-3.428,12.163,-0.104,0.686,-0.532,-2.052
-7.204,7.746,-0.085,1.446,-0.4,-1.548
-9.724,5.56,3.406,1.856,1.336,-1.165
-10.153,2.663,7.365,2.079,2.867,-1.003
-8.631,-7.663,7.365,3.185,3.886,0.207
-5.424,-12.848,11.876,2.039,5.204,1.558
-2.135,-9.423,12.964,1.976,5.972,1.524
0.346,-7.576,10.568,2.387,4.966,1.715
0.232,-5.511,7.742,3.25,3.708,1.919
-0.381,-3.475,6.454,4.117,3.098,2.182
-0.888,-1.005,5.961,4.794,2.488,2.339
-1.441,0.913,6.883,5.087,1.771,2.664
-6.275,1.751,14.889,5.546,-0.087,2.61
-6.189,-3.481,29.447,4.422,-1.299,3.725
-9.679,-9.265,42.474,1.588,-2.417,4.964
-16.149,-7.623,57.237,-1.284,-0.864,3.581
-19.314,7.14,69.845,-4.021,-0.132,1.57
-0.388,-1.839,1.441,0.731,1.163,0.343
0.527,-1.4,1.602,1.242,2.289,1.027
0.77,-1.82,2.372,1.961,3.183,2.314
0.44,-1.204,2.919,2.778,3.136,3.673
-3.025,-0.182,7.458,3.518,2.372,4.569
-8.44,-0.448,15.424,3.713,0.106,4.78
-10.383,-7.107,24.184,2.547,-1.925,4.04
-14.559,-8.946,36.203,0.083,-3.436,3.367
-18.698,-2.728,51.347,-2.481,-3.54,1.037
-24.471,6.627,51.519,-4.967,-2.153,-0.563
-16.347,14.677,44.772,-6.13,-0.676,-1.65
-16.988,24.416,36.644,-4.806,-0.442,-2.362
-16.061,23.826,25.597,-2.662,0.617,-2.241
-12.301,15.735,12.183,-0.495,2.092,-0.938
-3.385,3.664,9.34,1.9,2.264,0.393
-6.114,-4.503,8.588,2.821,2.42,1.428
-3.831,-8.088,7.655,2.667,3.704,2.786
-1.208,-7.309,5.998,2.969,4.052,2.758
-0.562,-7.747,3.474,3.003,3.524,3.404
-1.134,-6.218,2.444,2.672,2.485,3.905
-7.096,-4.379,5.877,2.85,1.368,3.91
-11.748,-7.045,13.251,2.413,-0.509,3.656
-13.723,-10.668,22.742,-0.032,-0.603,2.9
-22.666,-5.872,36.188,-2.234,-1.737,0.606
-30.993,5.178,45.615,-4.298,-1.109,-2.024
-23.78,15.394,42.914,-5.778,0.356,-3.044
-18.294,22.019,33.858,-5.219,0.967,-3.72
-21.123,24.605,27.2,-2.73,-1.281,-3.139
-14.806,19.942,17.205,-0.588,0.06,-1.945
-6.451,6.655,8.895,1.423,0.568,-0.542
-7.29,-5.434,8.031,2.362,0.615,0.173
-7.169,-9.058,9.722,1.948,2.13,0.873
-1.296,-6.709,7.233,1.831,4.601,0.891
2.321,-5.874,4.421,2.099,4.26,1.919
3.551,-3.726,2.311,2.573,3.177,3.076
1.582,-1.692,2.814,3.388,1.653,3.871
-4.533,0.868,8.574,3.765,0.414,4.77
-10.044,-0.24,17.593,3.186,-1.021,5.024
-12.434,-7.092,27.221,0.776,-2.401,4.204
-19.526,-4.563,43.067,-1.709,-1.758,2.513
-26.583,0.709,53.9,-4.463,-1.171,-0.247
-25.668,10.591,53.939,-6.962,0.159,-2.37
-19.889,19.233,44.516,-7.19,0.217,-4.058
-20.462,29.249,34.713,-4.087,0.677,-4.211
-15.296,22.257,22.264,-1.569,0.434,-2.795
-7.552,14.88,11.808,0.865,0.439,-0.696
-4.092,0.462,7.324,3.375,0.259,0.323
-5.638,-7.88,8.733,4.513,1.811,1.767
-4.257,-11.963,9.76,4.202,3.413,2.619
-2.808,-8.518,7.587,4.377,4.424,3.033
-2.178,-7.366,6.289,4.528,4.785,3.899
-3.902,-3.653,8.215,4.475,2.97,4.178
-8.036,-1.844,13.445,4.343,1.058,4.114
-12.069,-3.136,21.562,3.203,-0.239,3.311
-12.723,-8.07,32.665,0.51,-1.942,2.083
-20.196,-5.916,47.798,-2.075,-0.753,0.491
