ax,ay,az,gx,gy,gz
-3.996,-3.573,-6.975,-1.452,-0.167,0.387
-4.555,-2.304,-7.923,-1.268,-0.092,0.167
-4.489,-1.163,-8.362,-0.758,-0.088,-0.08
-4.547,-0.493,-8.309,-0.027,-0.082,-0.337
-4.105,-0.783,-7.409,0.796,-0.006,-0.524
-3.483,-1.609,-6.445,1.479,-0.331,-0.753
-3.226,-3.157,-5.935,1.872,-0.507,-0.827
-3.208,-5.124,-6.055,1.826,-0.669,-0.761
-3.808,-6.242,-6.405,1.412,-0.689,-0.669
-3.922,-6.807,-6.65,0.875,-0.427,-0.548
-3.256,-7.098,-6.162,0.438,-0.101,-0.345
-2.739,-7.039,-5.083,0.156,-0.072,-0.117
-2.46,-6.363,-3.745,0.137,-0.115,0.077
-2.165,-6.498,-2.945,0.361,-0.358,0.289
-2.7,-6.594,-3.049,0.614,-0.502,0.499
-3.281,-6.865,-3.221,0.8,-0.32,0.746
-3.583,-6.799,-3.131,0.911,-0.089,0.955
-4.281,-7.101,-2.837,0.946,0.048,1.089
-5.207,-7.23,-2.424,0.938,0.143,1.102
-5.923,-7.525,-1.96,0.926,0.032,1.051
-7.516,-7.622,-2.125,0.861,-0.23,0.907
-9.177,-7.984,-2.734,0.674,-0.243,0.608
-9.595,-7.84,-3.147,0.414,0.117,0.3
-8.63,-7.379,-2.986,0.108,0.544,0.11
-7.675,-6.642,-2.5,-0.17,0.718,0.032
-6.437,-5.908,-1.91,-0.312,0.738,0.018
-4.945,-4.558,-1.253,-0.275,0.422,0.15
-3.443,-2.819,-0.673,-0.095,-0.171,0.635
-2.481,-0.664,-0.403,0.135,-0.805,1.576
-2.536,2.098,-0.282,0.362,-1.213,2.961
-4.268,4.9,0.432,0.582,-1.746,4.468
-9.692,5.648,2.012,0.853,-2.231,5.645
-19.217,0.038,3.713,0.555,-2.211,5.651
-28.763,-4.509,7.459,-0.952,-1.262,3.87
-37.941,-5.215,15.877,-2.826,0.301,0.711
-47.302,0.832,25.488,-4.651,2.227,-2.596
-40.411,8.897,28.29,-5.326,3.309,-5.653
-30.177,19.73,26.433,-5.095,3.532,-6.227
-21.905,25.614,23.286,-3.292,2.528,-4.742
-15.975,22.139,15.758,-1.014,1.121,-2.192
-5.628,12.76,6.51,1.0,-0.276,0.011
-9.161,1.533,2.469,1.84,-0.773,1.928
-11.698,-6.534,3.463,2.381,-0.497,2.188
-11.537,-10.648,2.879,2.344,0.127,1.857
-8.272,-10.417,2.196,2.053,0.793,1.568
-8.237,-11.109,1.631,1.885,0.954,1.564
-7.841,-10.081,2.078,1.652,1.341,1.66
-7.883,-9.086,1.579,1.271,1.317,1.631
-8.655,-9.202,2.083,1.047,1.244,1.349
-9.404,-8.017,2.238,0.841,0.831,0.784
-8.732,-6.408,2.392,0.68,0.87,0.357
-6.696,-4.115,2.0,0.484,0.684,0.462
-4.799,-1.57,1.451,0.462,0.401,1.221
-3.742,1.103,1.234,0.54,0.03,2.498
-5.357,1.775,2.16,0.733,-0.595,4.008
-10.1,-3.491,3.544,0.394,-1.079,4.971
-21.722,-6.358,8.752,-0.989,-1.561,4.41
-31.733,-8.111,19.065,-2.766,-0.085,1.799
-42.968,0.158,33.693,-4.739,1.166,-1.249
-37.623,12.528,37.283,-6.106,2.429,-3.973
-28.386,25.236,34.436,-5.854,2.82,-4.811
-19.126,30.859,30.304,-4.007,2.484,-4.11
-13.15,30.066,21.354,-1.69,1.272,-1.767
-3.71,19.786,8.304,0.531,0.24,0.232
-8.606,5.58,4.483,2.122,-0.366,1.331
-13.413,-3.735,6.065,2.618,-0.087,0.991
-11.508,-9.342,4.843,2.464,1.005,0.543
-8.504,-9.656,3.646,2.053,1.117,0.287
-6.621,-9.659,1.607,1.789,1.506,0.584
-6.033,-10.051,1.181,1.53,1.575,1.247
-6.386,-9.236,0.912,1.212,1.367,1.663
-7.559,-8.576,1.306,1.004,1.016,1.706
-8.393,-8.323,1.814,0.791,0.804,1.359
-9.568,-7.978,2.437,0.555,0.396,0.774
-8.117,-4.978,2.091,0.228,0.285,0.523
-6.233,-1.26,2.055,0.128,0.053,1.234
-5.703,0.923,1.844,0.231,-0.402,2.502
-8.169,1.434,2.455,0.307,-0.848,4.062
-15.66,-2.667,4.906,-0.365,-0.796,4.748
-25.511,-7.003,8.187,-1.651,-0.359,3.641
-36.069,-8.346,18.543,-3.171,1.055,0.957
-46.208,0.404,31.194,-5.168,2.905,-2.163
-39.164,11.014,33.29,-5.887,3.368,-4.974
-29.5,22.492,29.268,-5.231,2.963,-5.595
-21.035,28.79,25.765,-3.464,2.192,-4.193
-13.357,27.843,15.851,-1.548,0.85,-1.817
-4.987,17.207,4.485,0.655,-0.501,0.362
-10.296,5.648,2.387,1.68,-0.656,1.73
-11.968,-3.332,4.16,2.166,-0.028,1.739
-10.71,-8.225,3.952,2.236,0.291,1.358
-9.694,-9.989,2.88,2.192,0.589,0.96
-7.492,-10.881,1.267,2.064,1.068,0.943
-5.641,-10.288,0.431,1.842,1.353,1.246
-6.583,-9.499,0.365,1.629,1.153,1.525
-7.481,-9.255,1.001,1.348,1.166,1.524
-7.86,-9.011,1.732,1.061,0.949,1.297
-8.481,-8.027,2.299,0.778,0.433,0.932
-8.249,-5.998,2.472,0.589,0.096,0.902
-6.347,-2.992,2.505,0.681,-0.02,1.587
-6.045,-0.681,2.372,0.838,-0.341,2.804
-6.364,-0.22,1.985,0.873,-0.017,4.436
-11.21,-1.108,2.005,0.537,-0.268,5.485
-23.784,-2.329,3.706,-0.294,0.256,4.704
-33.925,-2.609,8.542,-1.326,1.049,1.954
-46.031,5.466,18.636,-2.872,2.441,-1.169
-48.27,16.991,25.035,-4.225,2.53,-4.552
-37.072,26.551,23.323,-4.167,2.865,-6.223
-24.563,32.591,20.512,-3.254,1.878,-5.556
-16.961,32.841,15.259,-2.075,1.009,-3.072
-5.745,23.451,6.199,-0.371,-0.042,-0.687
-4.54,11.572,1.456,1.252,-0.653,1.394
-11.899,1.788,3.452,1.926,-0.8,2.005
-12.857,-6.304,4.397,2.19,-0.371,1.776
-11.429,-9.942,3.455,2.016,-0.125,1.18
-9.798,-10.673,2.028,1.772,0.221,0.913
-7.328,-10.022,0.847,1.541,0.604,1.046
-6.191,-8.786,0.736,1.342,0.684,1.541
-6.928,-8.202,1.338,1.173,0.87,1.897
-8.052,-7.312,2.56,1.05,0.6,1.879
-9.891,-6.83,3.082,0.91,0.22,1.455
-10.632,-6.547,3.194,0.725,0.118,0.942
-9.527,-4.349,2.95,0.534,0.16,0.781
-6.961,-1.047,2.38,0.573,-0.024,1.37
-5.437,1.515,1.983,0.711,-0.085,2.602
-7.001,3.21,2.456,0.878,-0.417,4.147
-15.248,-0.25,5.672,0.597,-1.398,4.695
-26.881,-4.443,9.503,-0.34,-0.29,3.203
-37.879,-3.449,17.887,-1.905,0.449,0.471
-46.94,4.736,29.976,-3.895,1.649,-2.63
-42.791,15.462,32.873,-5.232,2.19,-5.388
-31.304,25.983,27.128,-4.937,2.571,-6.118
-20.871,32.093,22.307,-3.591,1.207,-4.489
-13.238,29.679,14.345,-1.769,0.577,-2.009
-6.184,19.126,3.637,0.305,-0.317,0.216
-9.589,6.114,1.068,1.817,-0.441,1.737
-13.491,-2.655,3.725,2.073,0.237,2.022
-13.252,-8.2,4.042,1.877,0.589,1.644
-10.914,-10.091,2.495,1.56,0.806,1.272
-8.77,-10.973,0.993,1.329,1.113,1.287
-5.841,-10.381,-0.241,1.057,1.154,1.533
-5.872,-9.664,-0.755,0.983,0.945,1.796
-6.659,-8.67,-0.484,0.912,0.821,1.818
-7.917,-8.277,0.841,0.878,0.717,1.514
-8.128,-6.712,1.592,0.725,0.153,1.121
-7.811,-4.232,2.141,0.617,-0.23,1.18
-5.503,-0.611,2.481,0.559,-0.614,2.015
-5.032,2.266,2.574,0.632,-1.223,3.395
-6.714,5.203,2.944,0.659,-1.631,4.967
-15.23,4.952,4.934,0.414,-1.494,5.916
-25.4,1.694,6.376,-0.416,-0.566,4.875
-34.019,0.759,11.497,-1.568,0.609,1.973
-44.571,6.812,22.465,-3.151,2.848,-1.307
-45.565,15.144,29.078,-3.994,4.046,-4.684
-33.122,22.735,26.543,-3.936,4.221,-6.923
-21.054,28.851,23.142,-3.202,3.267,-6.165
-14.873,29.674,17.96,-1.938,1.995,-3.625
-6.487,21.16,7.848,-0.286,0.34,-1.197
-4.666,9.412,1.521,0.737,-0.287,0.96
-9.712,0.522,1.711,1.313,-0.34,2.342
-12.556,-5.949,3.186,1.69,0.254,2.25
-10.702,-10.048,2.571,1.717,0.855,1.799
-7.862,-10.493,0.969,1.524,0.928,1.613
-6.198,-9.804,-0.201,1.369,0.921,1.734
-6.595,-9.177,-0.129,1.143,0.915,1.829
-7.311,-8.341,-0.017,0.974,0.534,1.688
-8.928,-7.651,0.574,0.832,0.439,1.337
-9.363,-6.732,1.666,0.743,0.166,0.9
-8.646,-4.082,2.18,0.674,-0.102,0.879
-5.846,-0.784,2.338,0.743,-0.208,1.74
-5.213,2.516,2.701,0.785,-0.536,3.16
-5.89,5.468,3.067,0.846,-1.159,4.727
-12.039,6.169,4.086,0.887,-1.679,5.718
-19.781,1.333,6.108,0.315,-1.976,5.326
-30.344,-2.128,10.67,-0.788,-0.48,3.18
-39.87,-0.994,20.292,-2.289,0.965,-0.032
-46.748,8.83,31.374,-4.017,2.61,-3.337
-38.958,19.925,33.519,-4.961,3.777,-5.802
-28.796,29.714,30.092,-4.476,3.877,-6.204
-20.517,34.399,24.609,-3.19,2.162,-4.824
-11.948,30.869,15.339,-1.379,1.261,-2.402
-4.865,17.814,4.724,0.447,0.21,-0.219
-7.878,4.304,1.853,1.607,-0.272,1.414
-11.525,-4.454,2.949,1.877,0.11,1.777
-10.402,-9.618,2.577,1.759,0.553,1.528
-8.888,-10.868,1.573,1.449,0.687,1.164
-6.888,-10.631,0.172,1.174,1.058,1.127
-4.877,-9.919,-0.479,0.985,1.03,1.329
-5.45,-8.78,-0.367,0.813,0.933,1.502
-6.369,-8.445,0.963,0.708,0.739,1.459
-7.327,-7.574,1.929,0.653,0.271,1.218
-7.313,-6.285,2.69,0.715,-0.487,1.074
-6.814,-3.309,2.863,0.786,-0.815,1.473
-6.06,0.169,3.397,0.964,-1.175,2.512
-6.821,3.348,3.531,1.076,-1.34,3.955
-8.648,4.712,3.833,1.062,-1.257,5.523
-17.076,4.113,6.175,0.653,-1.272,6.074
-28.497,1.709,9.696,-0.22,-0.132,4.438
-36.212,2.498,17.586,-1.795,1.122,1.401
-43.768,11.293,30.071,-3.612,3.047,-1.881
-41.003,21.39,34.432,-4.568,3.703,-5.267
-27.175,27.544,30.006,-4.32,4.176,-6.486
-16.435,32.809,25.854,-3.461,2.491,-5.181
-11.888,30.684,17.93,-1.678,1.48,-2.53
-4.046,19.117,5.779,0.221,-0.134,-0.175
-6.921,7.275,1.886,1.485,-0.825,1.915
-15.003,-0.595,4.223,1.967,-0.36,2.238
-14.457,-7.101,5.152,2.118,1.195,1.683
-10.021,-9.979,4.306,1.797,1.468,0.807
-7.948,-10.264,2.997,1.505,1.656,0.442
-4.61,-9.98,1.224,1.201,1.917,0.414
-3.015,-9.524,0.762,0.935,1.261,0.752
-4.586,-8.418,0.14,0.715,0.557,0.932
-6.177,-8.391,0.682,0.655,0.464,1.028
-6.866,-7.017,1.699,0.57,-0.011,1.113
-6.514,-3.69,2.837,0.454,-0.37,1.799
-5.357,1.898,3.374,0.761,-1.134,3.052
-7.653,5.73,4.9,1.369,-1.531,4.686
-11.898,9.034,8.099,1.718,-2.417,6.012
-22.064,4.437,11.077,1.755,-2.584,6.107
-32.319,-0.528,14.787,0.867,-1.578,4.303
-42.786,-1.436,25.855,-1.09,0.922,1.055
-48.771,6.254,38.838,-3.278,2.48,-2.438
-46.068,16.454,41.924,-5.198,3.893,-5.635
-31.26,29.396,36.14,-5.593,4.264,-6.658
-21.26,36.976,30.27,-4.407,3.057,-5.577
-13.359,35.213,18.899,-2.32,1.225,-3.139
-5.866,23.255,5.5,-0.391,0.267,-0.906
-4.894,10.431,0.189,1.432,-0.306,1.253
-11.337,0.062,2.881,2.162,-0.383,1.988
-12.717,-6.933,4.382,2.174,0.346,1.774
-9.787,-10.313,3.894,1.802,0.546,1.228
-8.098,-10.407,2.282,1.451,0.388,1.049
-6.326,-10.142,0.086,1.293,0.376,1.074
-6.383,-10.211,0.248,1.249,0.487,1.265
-6.438,-9.445,0.755,1.011,0.222,1.346
-8.516,-8.905,1.325,0.893,0.155,1.34
-9.065,-8.161,2.658,0.857,0.141,1.239
-8.9,-6.188,4.017,0.645,0.138,1.396
-6.206,-1.806,3.902,0.545,-0.377,2.154
-7.361,1.274,4.062,0.867,-0.762,3.353
-7.836,3.496,4.478,1.121,-1.005,4.658
-13.875,2.734,6.958,1.143,-1.399,5.533
-23.87,-2.199,9.849,0.344,-0.959,4.528
-31.78,-4.087,15.129,-1.221,0.432,1.699
-41.159,-0.255,24.893,-3.352,1.927,-1.392
-43.527,8.086,31.727,-4.682,2.967,-4.584
-34.886,17.701,29.008,-5.203,3.307,-6.853
-23.814,26.336,24.335,-4.464,2.565,-6.403
-17.285,28.451,18.14,-2.801,1.437,-3.936
-8.131,22.166,8.108,-0.639,0.282,-1.36
-5.68,11.778,2.05,0.732,-0.178,1.061
-9.367,1.67,2.547,1.511,-0.115,2.602
-11.931,-5.474,3.976,1.926,0.502,2.745
-10.222,-10.132,3.717,1.869,0.619,2.306
-8.937,-11.309,2.353,1.7,0.6,1.808
-7.508,-11.014,0.053,1.511,0.694,1.568
-7.155,-10.244,-0.931,1.373,0.879,1.508
-7.151,-9.388,-0.483,1.152,0.944,1.515
-8.535,-8.396,0.645,0.99,1.051,1.335
-8.344,-7.543,1.857,0.802,0.996,1.108
-7.882,-6.206,2.47,0.673,0.543,0.961
-5.838,-3.762,2.916,0.56,0.057,1.43
-5.346,-0.633,2.724,0.72,-1.068,2.212
-6.836,1.378,3.563,1.02,-1.606,3.228
-8.951,1.974,4.809,1.324,-1.741,4.226
-14.569,-0.35,8.482,1.034,-2.241,4.494
-21.798,-5.596,12.978,0.019,-1.407,3.272
-29.265,-7.405,19.783,-2.052,0.158,0.553
-36.818,-1.194,29.106,-4.223,2.077,-2.311
-34.583,5.774,32.671,-5.437,3.032,-5.159
-27.945,13.138,28.419,-5.378,3.324,-6.653
-21.495,21.01,22.818,-4.25,2.714,-6.032
-14.481,22.352,15.593,-2.061,1.882,-3.765
-5.96,14.404,5.824,0.161,0.72,-1.347
-6.88,6.59,1.61,1.323,0.127,1.029
-9.32,-0.618,3.114,1.763,0.713,2.525
-10.285,-6.374,3.776,1.767,0.697,2.737
-9.776,-9.776,3.117,1.513,0.928,2.566
-9.517,-10.314,1.823,1.215,0.973,2.269
-8.112,-10.408,0.414,1.013,1.001,2.025
-8.052,-9.312,-0.626,1.012,0.783,1.78
-7.996,-8.871,-0.214,1.028,0.896,1.572
-8.276,-7.631,0.744,0.973,0.545,1.341
-7.811,-6.091,1.441,0.871,0.045,1.239
-7.42,-3.883,2.43,0.866,0.055,1.581
-6.22,-1.604,2.894,0.829,-0.423,2.177
-6.43,0.631,3.196,0.994,-0.974,3.055
-8.398,1.548,4.24,1.189,-1.203,4.026
-14.754,-0.904,7.494,0.889,-1.559,4.31
-22.721,-6.517,10.787,-0.258,-1.203,2.841
-30.315,-7.486,17.215,-2.15,0.187,0.187
-36.571,-2.793,24.453,-3.999,1.431,-2.602
-37.053,2.817,27.897,-5.213,2.331,-5.302
-29.688,11.512,25.101,-5.41,2.712,-6.539
-21.765,20.566,19.845,-4.394,2.11,-5.668
-13.761,21.857,12.543,-2.364,1.182,-3.286
-7.893,15.599,5.63,-0.415,0.315,-0.78
-7.249,8.449,2.092,0.85,-0.134,1.371
-9.008,-0.043,2.106,1.593,0.217,2.486
-10.35,-6.927,3.458,1.928,0.334,2.696
-10.574,-10.779,3.349,1.877,0.331,2.446
-10.152,-11.772,1.457,1.618,0.563,2.171
-8.838,-11.381,0.075,1.442,0.615,2.059
-9.427,-10.46,-0.678,1.26,0.558,1.857
-9.521,-8.789,-0.436,1.072,0.682,1.633
-9.832,-7.114,0.485,0.873,0.714,1.311
-7.984,-4.629,1.867,0.716,0.652,1.202
-5.505,-2.021,2.681,0.671,0.38,1.616
-3.574,0.58,3.369,0.732,-0.293,2.551
-4.178,2.885,4.156,0.895,-1.175,3.765
-8.688,3.868,5.261,0.938,-1.652,4.861
-15.266,1.891,6.437,0.477,-1.281,5.083
-25.114,-0.878,6.721,-0.434,-0.813,3.636
-34.326,-1.549,12.283,-1.604,0.661,0.72
-43.642,5.444,23.028,-3.38,2.799,-2.355
-41.284,14.675,27.592,-4.662,4.064,-5.261
-30.707,22.23,24.555,-4.22,3.663,-6.674
-21.541,27.551,23.273,-3.203,2.808,-5.985
-14.706,27.847,17.471,-1.746,1.818,-3.644
-4.471,18.432,6.446,0.079,0.559,-1.354
-3.549,7.471,1.585,1.557,-0.152,0.913
-8.81,-0.612,3.427,1.843,-0.123,2.124
-10.161,-6.453,3.806,1.977,0.383,2.407
-8.755,-9.421,3.249,1.848,0.475,2.226
-8.87,-10.04,2.275,1.741,0.421,2.136
-7.919,-10.198,0.811,1.578,0.392,2.091
-9.096,-10.064,0.697,1.478,0.375,2.005
-9.649,-9.135,1.477,1.194,0.558,1.74
-9.454,-7.52,2.399,0.868,0.51,1.462
-7.731,-4.48,3.272,0.588,0.198,1.554
-6.159,-0.925,3.5,0.655,-0.497,2.154
-5.932,2.401,3.621,0.926,-1.098,3.241
-8.763,3.571,5.132,1.185,-1.782,4.535
-17.471,1.152,8.51,0.89,-1.589,4.785
-26.312,-2.599,11.604,-0.052,-0.694,3.01
-35.073,-2.1,19.697,-1.856,0.7,0.189
-41.182,3.555,29.206,-3.824,2.576,-2.954
-38.836,10.364,31.096,-5.244,3.046,-6.098
-26.738,19.862,24.998,-5.089,2.722,-6.856
-19.2,26.495,20.532,-3.781,1.551,-5.118
-14.256,24.346,13.561,-1.641,0.597,-2.45
-8.352,15.027,4.443,0.233,-0.642,-0.107
-8.919,6.182,1.208,1.846,-0.435,2.04
-13.112,-2.515,3.343,2.452,0.099,2.651
-12.883,-8.9,4.655,2.494,1.028,2.427
-10.562,-11.08,3.181,2.053,1.256,1.799
-9.082,-10.474,2.322,1.721,1.671,1.671
-6.974,-9.286,0.831,1.302,1.511,1.653
-7.566,-8.628,0.986,1.053,1.242,1.754
-8.005,-7.463,0.751,0.75,0.673,1.586
-7.865,-6.326,1.552,0.611,0.25,1.451
-7.596,-3.938,1.744,0.594,-0.43,1.466
-6.495,-1.337,2.715,0.671,-0.441,2.218
-5.455,2.127,3.257,0.771,-1.195,3.189
-7.139,4.427,4.191,1.092,-1.774,4.391
-12.177,4.509,6.568,1.114,-1.635,5.261
-21.799,0.882,8.76,0.521,-1.718,4.571
-30.754,-2.365,14.117,-0.747,-0.845,1.89
-40.487,0.819,26.134,-2.843,1.007,-1.168
-44.767,10.226,34.524,-4.986,2.328,-4.234
-36.86,21.36,34.569,-6.086,3.052,-6.235
-24.072,30.376,30.897,-5.727,3.201,-6.055
-16.967,35.419,24.583,-4.227,1.806,-4.075
-8.122,30.194,12.423,-1.767,0.505,-1.642
-3.782,18.063,4.192,0.643,-0.271,0.567
-8.125,5.417,2.725,2.273,-0.779,1.839
-12.555,-3.468,4.376,2.922,-0.585,1.95
-11.374,-9.006,4.562,2.825,0.229,1.638
-9.849,-10.829,3.353,2.337,0.494,1.21
-7.784,-10.257,1.902,1.814,0.876,1.079
-7.029,-9.106,0.768,1.44,0.741,1.071
-7.495,-7.121,1.368,1.196,0.945,1.332
-7.953,-5.023,2.545,0.995,0.61,1.753
-7.57,-1.901,3.601,0.911,0.277,2.531
-8.232,1.291,4.014,0.928,-0.402,3.54
-9.186,3.847,4.397,0.812,-0.461,4.842
-11.477,5.625,4.498,0.526,-1.2,5.697
-18.038,3.94,5.429,0.118,-1.921,5.494
-26.313,-0.12,7.091,-0.546,-1.226,3.757
-34.513,-2.486,14.607,-1.912,-0.552,0.671
-41.575,4.457,29.571,-3.769,1.347,-2.667
-41.436,14.053,37.249,-5.231,2.355,-5.615
-31.306,23.462,35.83,-5.56,3.311,-6.9
-21.8,30.859,32.139,-4.936,2.356,-6.382
-13.624,32.591,23.905,-3.268,1.763,-4.39
-5.846,23.693,8.676,-1.038,0.069,-2.289
-3.23,11.71,1.134,0.84,-0.139,-0.122
-8.326,1.797,1.532,1.765,-0.194,1.086
-10.645,-5.386,3.179,1.925,0.661,1.409
-9.784,-9.442,3.051,1.68,1.243,1.328
-7.426,-11.048,2.275,1.331,1.499,1.369
-6.729,-11.045,0.66,1.14,1.311,1.468
-6.587,-10.49,0.167,1.032,1.383,1.647
-6.615,-9.163,0.504,0.965,1.133,1.851
-6.814,-7.39,1.598,0.885,0.826,2.201
-7.59,-4.631,2.447,0.884,0.257,2.677
-7.188,-1.402,3.705,0.872,-0.176,3.496
-7.051,2.49,4.597,0.832,-0.809,4.58
-8.063,5.403,5.337,0.812,-1.633,5.698
-11.98,6.776,6.602,0.756,-2.39,6.213
-17.226,5.018,7.799,0.259,-2.182,5.932
-23.64,3.09,8.924,-0.494,-0.858,4.41
-29.627,2.783,13.925,-1.198,0.721,1.219
-36.869,7.823,24.128,-2.42,2.693,-1.991
-37.663,19.198,31.806,-3.765,4.454,-4.768
-29.038,30.069,32.239,-4.022,4.923,-6.679
-20.02,35.259,28.59,-3.623,3.358,-6.868
-14.489,35.545,21.446,-2.787,2.015,-4.938
-6.655,27.542,10.601,-1.305,0.944,-2.88
-2.638,13.695,1.879,0.169,0.189,-0.95
-6.809,1.473,0.047,1.033,-0.022,0.536
-9.118,-5.848,1.231,1.386,0.795,1.128
-6.418,-9.834,1.543,1.226,1.315,1.226
-4.7,-9.681,0.174,1.037,1.138,1.492
-4.869,-9.442,-0.528,1.054,0.966,1.854
-5.487,-8.279,-0.847,1.102,0.79,1.995
-6.6,-7.999,-0.069,1.246,0.619,1.963
-8.027,-7.996,1.202,1.318,0.235,1.68
-8.607,-7.696,2.534,1.189,-0.173,1.231
-7.164,-5.052,2.689,1.127,-0.085,1.319
-4.951,-1.687,4.249,1.038,-0.197,2.307
-5.429,3.126,4.746,1.127,-1.088,3.52
-7.359,7.105,5.853,1.287,-1.399,4.959
-10.734,8.791,7.272,1.544,-1.385,6.271
-17.611,8.026,10.13,1.193,-2.124,6.199
-27.41,3.285,12.528,0.479,-0.972,4.25
-35.916,2.075,20.322,-1.142,0.907,1.102
-42.319,12.125,31.67,-2.996,2.784,-2.163
-40.59,22.894,35.758,-4.339,3.774,-5.349
-30.191,28.292,32.185,-4.312,4.255,-6.762
-22.185,34.877,27.983,-3.75,2.671,-6.194
-13.268,34.057,18.965,-2.252,1.559,-4.235
-4.753,21.192,6.315,-0.448,0.078,-2.223
-4.404,7.578,1.167,0.949,-0.348,-0.095
-9.403,-0.695,1.717,1.372,-0.218,0.945
-8.474,-7.101,1.953,1.486,0.62,1.247
-7.264,-9.885,1.425,1.291,0.723,1.34
-7.056,-10.469,0.663,1.059,0.971,1.527
-6.363,-9.662,-0.092,0.872,0.757,1.561
-6.776,-9.113,0.528,0.892,0.932,1.685
-8.055,-8.105,0.849,0.966,0.6,1.559
-8.718,-7.515,2.179,1.096,0.706,1.408
-7.721,-6.189,3.107,1.137,0.439,1.502
-5.844,-2.582,3.705,1.175,0.072,2.238
-5.349,1.722,4.553,1.325,-0.519,3.435
-7.233,4.703,5.669,1.574,-0.939,4.867
-11.899,6.187,8.166,1.523,-1.656,5.803
-21.931,3.255,9.38,1.209,-1.784,5.138
-28.809,-1.188,11.015,0.299,-0.476,3.071
-35.611,-2.979,18.065,-1.161,1.104,-0.185
-41.658,0.972,29.199,-3.121,2.506,-3.451
-39.255,9.754,32.321,-4.773,3.392,-6.276
-26.574,20.894,30.11,-5.118,3.683,-6.659
-19.932,28.687,25.748,-4.331,2.218,-5.755
-12.502,30.598,16.791,-2.783,0.929,-3.546
-5.846,24.63,5.898,-0.713,-0.301,-1.286
-6.08,13.846,1.622,1.188,-0.687,0.564
-10.78,3.114,2.395,2.092,-0.779,0.979
-11.657,-5.109,4.447,2.322,-0.116,0.899
-10.963,-9.428,3.995,2.198,0.029,0.486
-8.484,-10.819,2.018,1.867,0.495,0.258
-6.224,-10.111,0.368,1.775,0.491,0.402
-6.036,-9.198,0.549,1.69,0.629,0.713
-6.928,-8.39,1.506,1.587,0.538,0.996
-8.316,-8.053,3.277,1.405,0.546,1.124
-8.646,-6.845,4.542,1.286,0.117,1.237
-7.671,-4.49,5.275,1.092,0.425,1.992
-6.106,-0.689,5.919,0.971,-0.05,3.18
-6.971,3.483,5.973,1.03,-0.698,4.536
-9.579,6.726,7.258,1.088,-1.239,5.67
-15.705,6.405,8.89,0.98,-1.542,5.972
-23.947,2.487,9.611,0.469,-1.294,4.563
-32.533,-1.051,12.735,-0.511,0.148,1.671
-41.156,-0.127,23.507,-2.128,2.123,-1.62
-45.773,8.516,33.448,-3.834,3.746,-4.678
-36.977,20.525,34.647,-4.601,4.585,-6.677
-26.133,28.96,31.929,-4.435,3.619,-6.571
-19.315,33.626,26.588,-3.341,1.917,-4.836
-10.448,30.15,14.973,-1.491,0.461,-2.588
-4.034,18.376,3.593,0.389,-0.636,-0.562
-7.891,4.932,0.485,1.618,-0.807,1.039
-12.394,-2.88,1.709,2.22,-0.2,1.456
-10.786,-8.861,2.427,2.196,0.599,1.367
-9.378,-10.631,1.764,1.82,0.716,1.115
-7.41,-10.758,0.684,1.408,0.984,1.197
-6.625,-9.38,-0.173,1.055,0.731,1.177
-6.468,-8.618,-0.276,0.892,0.636,1.311
-7.658,-7.445,0.625,0.834,0.313,1.393
-8.264,-5.61,1.413,0.88,0.306,1.618
-7.578,-3.283,2.567,1.049,0.149,2.304
-6.955,-0.451,4.076,1.171,-0.339,3.253
-6.935,2.987,5.71,1.413,-1.126,4.312
-8.466,6.192,6.917,1.683,-1.625,5.281
-11.468,6.669,8.661,1.82,-1.895,5.67
-15.661,5.045,9.64,1.621,-2.385,5.026
-22.393,0.916,10.072,0.73,-1.632,3.71
-30.183,-1.815,13.744,-0.797,0.446,1.315
-37.076,0.205,23.335,-2.572,2.729,-1.651
-42.178,10.742,31.838,-4.115,4.051,-4.261
-37.384,21.345,33.84,-4.796,4.951,-6.289
-27.924,29.123,31.832,-4.319,4.419,-6.838
-19.644,33.041,25.426,-3.063,2.635,-5.716
-10.7,29.611,13.903,-1.361,0.896,-3.6
-3.505,17.23,4.267,0.231,-0.197,-1.425
-5.902,5.13,1.326,1.212,-0.632,0.566
-9.499,-2.783,1.637,1.662,-0.404,1.399
-9.027,-8.271,1.966,1.767,-0.002,1.605
-8.98,-10.849,1.489,1.563,0.123,1.563
-8.329,-10.857,-0.099,1.285,0.296,1.52
-8.175,-10.211,-0.716,1.188,0.419,1.527
-8.694,-9.658,0.13,1.044,0.69,1.527
-9.52,-9.094,1.676,0.884,0.594,1.309
-9.592,-7.425,2.788,0.783,0.29,1.126
-8.138,-5.337,3.884,0.806,0.311,1.404
-5.912,-2.173,4.47,0.814,-0.021,2.194
-4.46,2.169,5.259,1.001,-0.679,3.416
-4.744,6.071,6.558,1.381,-1.399,4.856
-8.189,7.845,8.738,1.638,-2.075,5.967
-14.837,6.962,10.968,1.224,-2.653,6.102
-24.126,4.416,11.103,0.496,-1.861,4.845
-33.165,2.617,15.023,-0.433,0.252,2.011
-41.912,6.198,26.984,-2.028,2.818,-1.213
-45.757,16.97,37.373,-3.769,5.004,-4.215
-36.24,28.44,39.306,-4.226,6.28,-6.535
-24.006,35.509,36.84,-4.003,5.307,-7.02
-14.913,38.27,30.051,-3.153,3.276,-5.393
-5.692,32.884,16.113,-1.532,1.294,-3.112
0.517,19.464,3.765,0.405,-0.134,-0.915
-4.185,6.796,0.201,1.689,-1.146,1.037
-10.061,-1.535,2.091,2.508,-0.846,1.858
-10.318,-7.769,3.367,2.691,-0.284,1.929
-10.325,-10.821,2.744,2.463,-0.088,1.665
-9.838,-11.577,1.575,2.12,0.32,1.526
-9.555,-12.073,0.703,1.722,0.524,1.319
-9.397,-11.351,0.775,1.323,0.727,1.208
-9.874,-9.4,1.468,0.962,0.645,1.066
-8.539,-6.496,2.448,0.738,0.71,1.237
-6.261,-3.44,3.42,0.701,0.394,1.934
-4.824,0.128,3.952,0.777,-0.309,2.984
-5.483,3.401,4.642,1.136,-1.196,4.232
-7.782,4.178,5.569,1.376,-1.373,5.519
-14.593,3.491,6.895,1.109,-2.111,5.708
-23.158,1.018,8.078,0.354,-1.39,4.512
-30.688,-0.332,11.535,-0.625,0.184,1.857
-38.313,2.334,20.28,-2.231,2.105,-1.27
-40.958,11.876,27.938,-3.785,3.116,-4.446
-31.452,22.572,29.715,-4.389,4.459,-6.152
-19.637,30.133,27.436,-4.154,3.319,-6.095
-13.118,34.494,22.104,-3.199,1.771,-4.277
-5.52,31.491,12.973,-1.488,0.324,-1.902
-3.51,20.991,5.554,0.315,-0.79,0.132
-9.1,8.206,3.388,1.654,-1.345,1.207
-14.678,-0.453,4.397,2.324,-0.541,1.182
-13.608,-7.984,5.361,2.332,0.378,0.658
-11.125,-11.222,3.604,1.868,0.562,0.113
-7.78,-11.53,1.187,1.341,1.179,0.145
-6.007,-10.53,-0.164,0.975,1.047,0.456
-5.98,-9.797,-0.005,0.803,0.9,0.843
-7.054,-8.448,0.643,0.685,0.51,1.058
-7.982,-7.926,2.236,0.641,0.383,1.082
-7.841,-6.707,3.228,0.685,-0.299,1.064
-6.315,-4.868,3.686,0.617,0.024,1.617
-4.459,-1.593,3.694,0.593,-0.457,2.62
-5.153,1.884,4.308,0.762,-1.094,3.845
-7.94,4.598,5.682,1.022,-1.624,4.938
-14.194,3.731,8.112,1.009,-1.899,5.376
-22.477,-0.457,10.011,0.22,-2.014,4.311
-31.484,-2.213,15.753,-1.049,-0.281,1.629
-39.756,0.313,26.431,-2.853,1.918,-1.47
-41.404,8.681,33.564,-4.467,3.434,-4.417
-31.813,19.373,33.587,-5.163,4.424,-6.212
-21.318,29.044,30.816,-4.667,3.846,-6.129
-13.998,32.538,23.774,-3.15,1.873,-4.272
-6.992,27.848,12.679,-1.017,0.24,-1.907
-4.461,15.951,4.811,0.683,-0.449,0.052
-8.638,4.061,2.207,1.676,-0.575,1.229
-11.519,-4.306,2.313,2.213,0.111,1.507
-10.497,-9.368,2.427,2.165,0.637,1.41
-8.572,-10.748,1.24,1.817,0.909,1.216
-6.896,-10.032,-0.297,1.648,0.897,1.495
-7.646,-9.378,-0.047,1.553,0.883,1.725
-8.987,-8.762,0.954,1.384,0.73,1.751
-10.111,-8.425,2.451,1.185,0.699,1.609
-9.659,-7.415,3.678,0.918,0.125,1.408
-8.48,-4.98,4.258,0.76,-0.308,1.571
-6.02,-1.782,4.522,0.618,-0.665,2.469
-4.998,2.524,4.42,0.642,-1.175,3.77
-6.424,6.193,4.977,0.83,-1.679,5.041
-12.109,6.978,7.346,0.952,-2.071,5.753
-20.69,3.433,9.532,0.451,-1.636,4.941
-28.821,0.848,13.068,-0.794,-0.667,2.462
-36.847,2.378,22.463,-2.479,1.483,-0.773
-42.375,8.646,30.9,-3.826,3.062,-3.957
-36.231,17.574,32.701,-4.682,4.361,-6.641
-25.254,25.216,29.25,-4.448,3.943,-7.195
-17.872,28.687,23.718,-3.013,2.351,-5.903
-11.606,23.629,13.06,-1.019,0.396,-3.804
-4.081,13.969,3.309,0.414,-0.27,-1.708
-4.965,2.169,-1.252,1.419,-0.508,0.508
-8.557,-5.115,-0.796,1.773,0.101,1.648
-8.217,-9.47,0.053,1.588,1.161,2.024
-6.083,-9.681,0.53,1.198,1.643,2.157
-5.723,-9.342,0.639,1.013,1.312,2.351
-5.986,-7.742,1.005,1.06,0.843,2.342
-6.235,-6.828,2.383,1.275,0.57,2.323
-6.548,-5.33,3.838,1.534,0.062,2.498
-6.662,-3.323,5.542,1.874,-0.802,2.891
-7.534,-0.801,6.689,2.189,-1.481,3.473
-8.275,2.829,7.667,2.338,-1.708,4.275
-9.26,6.155,8.647,2.385,-2.045,5.104
-12.381,7.889,9.3,2.392,-2.49,5.35
-16.596,5.892,10.429,1.933,-1.546,4.834
-22.038,3.053,11.24,0.977,-0.66,3.22
-26.39,0.748,14.272,-0.323,0.887,0.62
-34.034,2.714,21.532,-1.978,2.651,-2.364
-39.379,11.14,30.346,-3.518,4.166,-4.972
-33.535,23.602,32.136,-4.446,4.395,-7.005
-22.285,31.302,28.611,-4.343,3.964,-6.827
-16.075,34.974,23.31,-3.348,2.227,-5.2
-8.41,31.975,14.382,-1.647,0.456,-2.86
-1.732,20.914,5.248,-0.104,-0.536,-0.645
-5.93,7.891,2.462,1.107,-1.134,1.125
-11.542,-1.033,3.831,1.683,-0.798,1.284
-10.95,-7.214,3.663,1.79,-0.101,0.989
-8.636,-9.607,2.768,1.63,0.145,0.603
-7.471,-9.423,1.289,1.484,0.469,0.566
-6.526,-9.65,0.275,1.512,0.552,0.817
-6.82,-8.949,1.233,1.497,0.521,1.17
-8.569,-8.575,3.088,1.37,0.525,1.318
-9.253,-8.367,4.969,1.074,0.461,1.316
-8.404,-7.018,5.615,0.893,0.146,1.411
-5.755,-3.645,5.465,0.746,0.066,2.166
-5.026,0.272,5.275,0.793,-0.526,3.356
-5.683,4.437,5.533,1.067,-1.188,4.614
-8.215,6.947,6.506,1.421,-1.266,5.742
-13.394,7.335,8.604,1.379,-2.084,5.834
-20.275,4.791,10.66,0.773,-1.551,4.661
-26.069,2.705,14.883,-0.376,0.15,2.32
-31.286,3.842,22.883,-2.005,2.417,-0.829
-34.597,12.178,31.018,-3.55,3.7,-3.908
-29.038,22.671,33.222,-4.338,5.436,-6.275
-18.125,30.053,30.334,-3.951,4.915,-6.841
-11.432,33.928,24.545,-2.905,3.075,-5.737
-6.487,30.809,15.447,-1.243,1.152,-3.376
-2.122,19.271,6.263,0.173,0.171,-1.226
-4.525,5.902,2.023,1.192,-0.665,0.657
-9.738,-2.501,2.259,1.507,-0.692,1.349
-10.654,-8.098,2.39,1.565,-0.112,1.287
-9.493,-10.158,1.826,1.371,0.162,0.844
-8.391,-9.343,0.643,1.324,0.255,0.689
-8.428,-8.963,0.776,1.321,0.341,0.68
-9.38,-8.559,1.855,1.236,0.447,0.655
-9.847,-8.032,3.309,1.141,0.464,0.603
-8.914,-6.719,4.458,1.067,0.355,0.724
-7.261,-4.565,5.413,1.135,0.27,1.26
-5.072,-0.683,5.734,1.303,-0.036,2.281
-4.665,3.207,6.388,1.632,-0.431,3.61
-5.977,6.214,7.157,2.057,-0.885,4.973
-9.524,7.336,9.039,2.103,-1.359,5.837
-17.903,4.721,10.21,1.728,-1.614,5.541
-24.822,1.395,10.641,0.621,-0.903,3.992
-30.478,-0.178,14.007,-0.88,0.752,1.28
-37.617,1.574,22.398,-2.609,2.91,-1.867
-42.952,10.896,29.786,-3.841,4.407,-4.77
-33.902,22.633,32.243,-4.448,4.955,-7.007
-24.633,29.608,29.524,-3.944,4.214,-7.157
-18.534,31.732,23.773,-2.532,2.429,-5.585
-10.741,26.628,14.213,-0.842,0.465,-3.337
-2.761,15.198,4.76,0.529,-0.447,-1.128
-5.155,2.752,0.814,1.622,-1.001,1.048
-8.96,-5.268,2.278,2.269,-0.671,1.966
-8.687,-9.489,3.13,2.282,-0.081,2.201
-7.812,-9.421,2.824,2.199,0.328,2.324
-8.813,-9.195,3.194,2.257,0.339,2.438
-9.36,-8.327,3.903,2.219,0.64,2.386
-8.984,-6.607,4.862,2.059,0.6,2.354
-8.619,-4.521,5.907,1.928,0.447,2.534
-7.914,-1.347,7.502,1.747,0.129,2.904
-7.475,2.177,8.292,1.608,-0.266,3.466
-7.066,5.73,7.923,1.468,-0.615,4.385
-8.259,8.0,7.388,1.406,-1.209,5.131
-12.455,7.717,8.039,1.161,-1.801,5.251
-19.188,4.609,8.068,0.574,-1.556,4.308
-24.326,1.968,9.148,-0.338,0.007,2.513
-31.874,1.313,16.039,-1.427,1.927,-0.38
-40.84,7.33,28.174,-2.692,4.182,-3.207
-41.471,18.811,35.816,-3.471,5.992,-5.71
-31.623,28.387,35.494,-3.459,6.019,-7.266
-23.342,33.908,31.83,-2.964,4.28,-6.977
-15.411,34.793,23.328,-1.818,2.225,-5.064
-5.664,26.175,10.911,-0.437,0.4,-2.777
-2.414,12.749,2.146,0.565,-0.726,-0.55
-6.614,1.999,0.568,1.175,-0.932,1.305
-9.445,-5.875,0.565,1.666,-0.194,1.961
-9.136,-9.823,-0.036,1.733,0.206,1.878
-8.636,-10.582,-0.67,1.595,0.645,1.716
-8.079,-9.893,-1.169,1.544,0.58,1.562
-8.783,-8.857,-0.471,1.485,0.727,1.465
-8.78,-7.442,1.005,1.385,0.413,1.333
-8.649,-6.31,3.115,1.332,0.204,1.4
-7.16,-3.865,4.142,1.467,-0.193,1.773
-5.831,-1.026,5.156,1.658,-0.301,2.69
-4.517,3.25,6.662,1.901,-0.843,3.794
-5.724,6.636,8.117,2.069,-1.256,5.102
-9.207,8.845,9.537,2.068,-1.687,5.91
-15.511,7.679,11.143,1.718,-2.443,5.623
-22.183,4.567,12.394,0.803,-1.818,4.095
-29.469,1.221,14.157,-0.79,-0.383,1.585
-34.288,2.053,21.163,-2.568,1.864,-1.626
-40.26,6.7,30.428,-3.975,3.859,-4.481
-36.339,15.759,34.831,-4.724,5.078,-6.693
-28.264,24.204,32.111,-4.59,4.236,-7.388
-20.358,28.412,26.45,-3.103,2.598,-6.27
-15.567,25.504,17.352,-1.048,0.642,-4.095
-7.412,17.052,6.465,0.551,-0.385,-1.985
-6.535,5.638,0.964,1.593,-0.27,0.145
-9.218,-3.744,1.598,2.101,0.317,1.528
-9.423,-9.483,3.167,1.812,1.173,2.097
-7.414,-10.881,2.666,1.351,1.663,2.332
-7.815,-10.146,2.57,1.182,1.55,2.64
-8.346,-8.896,1.987,1.123,1.269,2.781
-8.123,-7.574,2.492,1.178,0.846,2.84
-8.718,-5.223,3.354,1.306,0.668,2.874
-7.713,-3.274,4.696,1.209,0.295,3.166
-6.176,0.002,5.257,0.983,-0.515,3.614
-6.136,3.608,5.579,0.85,-1.111,4.437
-7.416,6.491,5.948,0.739,-1.583,5.202
-9.326,7.138,6.931,0.549,-2.203,5.606
-14.141,6.979,7.115,0.344,-2.777,5.214
-18.762,5.349,7.67,-0.106,-1.97,4.114
-24.044,4.105,10.45,-0.799,-0.212,2.197
-30.884,4.32,17.612,-1.734,1.985,-0.777
-37.701,12.949,29.542,-2.845,4.33,-3.496
-36.551,24.66,37.871,-3.651,6.147,-5.806
-27.794,32.797,38.072,-3.566,6.152,-7.225
-19.618,36.072,33.416,-3.001,4.381,-7.013
-11.232,34.714,24.46,-1.8,2.593,-4.891
-2.764,23.343,10.879,-0.373,0.69,-2.701
-0.659,9.205,1.914,0.859,-0.301,-0.395
-5.445,-0.623,-0.103,1.479,-0.765,1.51
-8.093,-6.665,0.313,1.845,-0.155,2.378
-8.312,-8.477,0.51,1.895,0.174,2.523
-8.492,-8.093,0.959,1.915,0.356,2.576
-9.699,-7.659,1.07,1.887,0.199,2.267
-9.814,-7.427,2.017,1.867,0.355,1.819
-9.584,-6.014,3.645,1.803,-0.026,1.459
-9.025,-3.959,5.353,1.695,-0.035,1.56
-7.747,-0.819,6.592,1.665,-0.217,2.112
-7.075,2.741,7.525,1.684,-0.555,3.113
-7.919,5.586,8.601,1.576,-0.823,4.35
-10.424,7.085,9.206,1.442,-1.084,5.251
-13.733,5.785,9.101,1.103,-1.715,5.186
-18.492,2.677,8.267,0.466,-1.699,4.188
-24.137,-0.792,7.619,-0.374,-0.658,2.495
-31.069,-2.699,11.794,-1.464,1.289,-0.205
-38.327,1.711,21.309,-2.624,3.466,-3.001
-41.778,11.797,29.023,-3.224,5.049,-5.305
-35.489,22.468,32.337,-3.24,5.658,-6.976
-24.918,28.374,30.87,-2.835,4.49,-6.977
-16.876,31.475,24.182,-1.663,2.093,-5.338
-8.456,25.224,13.111,-0.184,0.261,-3.096
-3.202,13.76,4.582,0.796,-0.687,-0.98
-5.853,2.017,0.859,1.43,-1.047,1.045
-10.581,-4.892,1.088,1.79,-0.549,1.801
-10.093,-9.521,0.995,1.765,0.415,2.014
-8.873,-10.402,0.714,1.51,0.698,2.059
-8.329,-9.907,0.864,1.363,0.828,2.243
-8.406,-8.482,1.24,1.255,0.758,2.308
-8.053,-6.852,2.694,1.198,0.566,2.405
-8.108,-4.915,4.402,1.158,0.328,2.526
-6.791,-2.205,5.672,1.152,-0.091,2.928
-6.505,1.221,6.432,1.156,-0.919,3.562
-7.145,4.473,7.217,1.136,-1.391,4.456
-8.816,6.933,7.438,1.13,-1.972,5.192
-12.069,7.344,8.351,0.986,-2.355,5.426
-19.018,5.322,8.598,0.541,-2.272,4.485
-23.86,2.409,9.63,-0.217,-0.733,2.651
-30.264,1.282,13.115,-1.34,1.017,-0.255
-35.654,4.039,21.761,-2.495,3.442,-3.15
-38.981,13.071,29.911,-3.507,5.08,-5.696
-31.974,23.284,31.927,-3.906,5.426,-7.444
-23.687,28.255,28.125,-3.278,3.935,-7.343
-18.538,28.785,22.499,-1.93,1.865,-5.758
-10.966,21.2,12.621,-0.62,0.338,-3.726
-3.651,10.75,1.89,0.507,-1.04,-1.57
-4.629,1.057,-2.403,1.513,-1.294,0.844
-8.793,-3.576,-0.694,2.029,-0.635,2.218
-7.576,-5.903,1.557,2.271,0.235,3.082
-9.869,-5.02,3.366,2.435,0.135,3.334
-11.297,-6.243,5.393,2.641,0.365,3.063
-9.904,-6.126,5.848,2.79,0.354,2.556
-9.784,-6.443,7.122,2.831,0.134,2.006
-8.35,-5.339,7.053,2.692,-0.149,1.611
-5.802,-2.076,6.465,2.704,-0.189,2.029
-5.318,1.587,7.19,2.738,-0.315,3.133
-8.543,3.978,9.056,2.467,-0.51,4.157
-9.92,6.047,9.191,1.875,-0.697,4.707
-12.932,5.678,8.302,1.377,-0.266,4.652
-16.374,4.145,7.452,0.769,-0.492,3.55
-22.069,-0.333,8.0,-0.116,-0.082,1.64
-29.959,-2.634,13.565,-1.564,1.916,-1.291
-37.458,2.213,22.364,-2.906,3.428,-3.869
-39.132,11.546,30.88,-3.906,4.367,-6.069
-34.696,18.592,33.032,-4.31,4.423,-7.464
-26.711,26.531,29.294,-3.75,3.442,-7.177
-17.827,27.873,21.408,-1.946,0.902,-5.24
-9.228,19.959,11.046,-0.176,-0.188,-3.114
-5.513,8.222,2.062,1.21,-1.344,-0.967
-7.697,-0.533,-0.28,1.968,-0.83,0.963
-9.447,-7.29,0.882,2.057,0.248,1.748
-7.663,-9.164,1.159,1.712,1.154,2.105
-7.493,-8.732,1.834,1.678,1.226,2.312
-7.198,-7.122,2.401,1.656,1.345,2.308
-6.512,-5.608,3.284,1.812,1.096,2.358
-6.287,-3.803,4.477,2.094,0.536,2.664
-7.198,-1.973,7.065,2.218,0.228,3.25
-7.431,0.785,7.842,2.031,-0.499,3.972
-9.001,3.655,8.794,1.712,-1.077,4.913
-11.929,5.314,8.462,1.345,-1.516,5.561
-15.191,5.165,8.292,0.789,-1.671,5.454
-19.947,2.708,6.954,0.151,-1.402,4.462
-25.336,0.602,7.361,-0.647,-0.011,2.63
-31.032,-1.574,11.876,-1.476,1.859,-0.207
-38.32,2.32,22.634,-2.567,3.925,-3.042
-40.719,13.452,30.259,-3.234,5.305,-5.389
-32.768,22.888,31.214,-3.157,5.256,-6.928
-24.394,27.953,28.943,-2.684,3.983,-6.538
-17.533,29.587,22.042,-1.676,2.068,-4.682
-8.032,23.064,10.338,-0.37,0.2,-2.565
-3.483,9.747,1.829,0.679,-0.891,-0.409
-7.594,-0.24,-0.257,1.192,-1.007,1.21
-9.242,-6.665,-0.326,1.574,-0.308,1.574
-7.544,-9.162,-0.113,1.649,0.226,1.557
-7.391,-8.265,0.612,1.765,0.509,1.649
-7.666,-7.554,1.38,1.806,0.575,1.551
-7.53,-6.842,2.795,1.807,0.757,1.567
-8.198,-6.015,4.498,1.842,0.482,1.647
-8.997,-5.343,6.104,1.891,0.242,1.788
-8.068,-3.758,6.652,1.93,-0.007,2.174
-7.629,-0.896,7.129,2.047,-0.265,3.022
-7.309,1.926,7.191,2.161,-0.645,4.134
-8.628,4.564,7.646,2.271,-1.224,5.098
-14.706,3.811,10.612,2.073,-1.814,5.447
-24.211,-0.755,14.158,0.973,-0.897,4.289
-32.133,-2.575,19.834,-1.078,0.744,1.384
-41.667,3.467,32.133,-3.156,2.778,-1.713
-44.272,11.383,39.607,-4.402,4.052,-4.735
-37.123,19.87,38.015,-5.234,4.893,-7.15
-26.128,28.775,32.318,-4.471,3.374,-7.385
-18.944,30.239,24.766,-2.122,1.005,-5.558
-10.009,20.509,11.248,0.044,-0.423,-3.754
-5.229,8.289,2.699,1.362,-0.671,-1.606
-6.69,-1.659,0.241,2.162,-0.575,0.58
-8.403,-8.737,0.893,2.054,0.44,1.748
-8.28,-10.912,1.374,1.513,1.601,2.327
-7.865,-10.024,2.615,1.213,1.688,2.832
-8.419,-8.28,2.842,1.012,1.305,2.883
-8.084,-6.491,3.702,1.247,1.135,2.694
-7.582,-4.948,5.34,1.643,0.964,2.622
-5.122,-3.051,6.584,1.832,0.436,2.878
-5.156,-0.131,7.279,2.046,-0.505,3.402
-6.854,3.081,8.305,2.067,-1.267,4.03
-8.046,5.196,8.793,1.864,-1.582,4.822
-11.268,7.831,8.511,1.655,-2.529,5.014
-14.366,6.909,8.66,1.373,-2.126,4.781
-16.552,5.275,7.501,0.851,-2.049,3.874
-19.676,1.653,7.234,0.176,-0.821,2.601
-25.906,-0.342,10.088,-0.76,0.729,0.476
-31.916,-0.844,18.029,-2.027,3.268,-2.014
-41.13,11.261,29.439,-3.132,4.789,-4.442
-39.492,21.279,35.539,-3.511,5.504,-6.368
-31.789,29.366,34.224,-3.414,4.987,-7.238
-22.638,32.58,29.085,-2.441,3.047,-6.455
-15.598,30.358,19.701,-0.902,0.71,-4.339
-4.708,16.783,7.12,0.424,-0.7,-2.162
-4.061,4.599,0.181,1.148,-0.907,0.052
-6.892,-3.851,-0.792,1.649,-0.75,1.627
-8.483,-7.455,-0.359,1.698,0.238,2.316
-7.476,-8.73,0.574,1.554,1.101,2.587
-8.336,-8.516,1.004,1.487,0.968,2.592
-8.463,-8.011,1.745,1.464,1.033,2.412
-9.119,-7.775,2.995,1.464,0.957,2.055
-9.198,-7.084,4.146,1.455,0.73,1.768
-7.6,-4.7,4.69,1.414,0.535,1.836
-6.118,-1.59,5.488,1.388,0.014,2.459
-6.574,2.088,6.441,1.357,-0.358,3.532
-7.088,5.633,7.159,1.244,-0.879,4.764
-10.042,7.51,8.152,1.223,-1.833,5.555
-16.601,6.534,9.527,0.975,-2.455,5.399
-25.165,2.418,9.811,0.112,-1.815,4.07
-31.882,-0.346,12.861,-1.249,-0.047,1.464
-39.464,1.326,22.567,-2.517,2.098,-1.671
-45.903,11.945,32.172,-3.569,4.329,-4.472
-39.828,21.561,33.879,-4.073,5.16,-6.77
-28.161,29.707,30.997,-3.41,4.648,-7.058
-20.124,32.546,25.912,-1.764,2.4,-5.664
-12.977,26.721,14.944,-0.222,0.527,-3.48
-3.466,12.587,3.547,0.799,-0.798,-1.296
-4.539,1.376,-0.827,1.423,-1.097,0.952
-8.756,-5.998,-0.367,1.581,-0.8,1.957
-8.672,-9.31,-0.094,1.312,0.045,2.37
-7.591,-8.222,-0.155,1.207,0.284,2.519
-9.088,-8.004,0.635,1.363,0.413,2.532
-9.253,-7.566,1.59,1.541,0.552,2.325
-9.32,-7.359,3.233,1.644,0.657,2.115
-9.718,-6.758,4.576,1.647,0.599,1.833
-8.349,-5.364,5.694,1.583,0.472,1.823
-6.621,-2.473,5.964,1.513,0.165,2.292
-6.105,0.858,6.434,1.451,-0.153,3.206
-6.708,4.344,6.342,1.463,-0.704,4.317
-8.944,6.399,6.851,1.343,-0.99,5.346
-16.033,5.554,7.695,0.977,-1.886,5.51
-24.465,2.373,7.765,0.19,-1.295,4.267
-32.508,-0.69,10.003,-0.967,-0.053,1.584
-42.621,1.441,20.399,-2.355,2.086,-1.51
-49.931,10.682,29.359,-3.425,3.015,-4.564
-42.152,22.145,31.494,-4.072,4.187,-7.051
-30.965,30.262,28.942,-3.605,3.386,-7.131
-23.22,33.908,25.31,-2.32,1.866,-5.328
-13.294,27.896,14.524,-0.89,0.161,-3.047
-4.521,15.42,4.251,0.332,-0.394,-0.807
-6.374,1.896,0.375,1.435,-0.506,1.423
-10.825,-6.605,1.697,1.805,0.108,2.203
-9.844,-11.193,1.054,1.612,0.72,2.26
-8.643,-10.431,-0.097,1.411,0.959,2.15
-7.062,-9.686,-0.268,1.299,1.041,2.155
-7.313,-8.34,-0.115,1.12,0.784,2.011
-6.26,-6.755,0.345,0.935,0.414,1.742
-6.82,-5.101,1.743,0.969,0.105,1.502
-6.227,-3.896,3.25,1.051,-0.225,1.543
-7.454,-2.498,4.593,1.068,-0.536,1.807
-7.51,-0.177,5.277,1.11,-0.7,2.32
-7.719,1.783,6.208,1.228,-0.917,3.261
-9.097,3.599,6.837,1.311,-1.154,4.126
-12.138,3.651,7.09,1.351,-1.539,4.475
-17.405,1.307,7.215,1.077,-1.808,3.973
-24.165,-3.297,8.294,0.222,-0.741,2.461
-32.78,-5.115,13.187,-1.288,1.097,-0.336
-40.407,-1.01,21.552,-2.773,2.774,-3.094
-43.296,6.77,27.11,-3.847,3.964,-5.653
-35.45,16.809,27.782,-4.034,4.491,-7.104
-25.512,24.874,24.759,-3.216,3.114,-6.582
-17.607,27.318,18.642,-1.412,1.16,-4.185
-10.438,19.266,9.965,0.206,-0.151,-1.741
-6.15,8.781,4.149,1.296,-0.802,0.583
-9.06,-1.528,1.584,1.86,-0.957,2.202
-11.831,-7.98,1.763,2.005,-0.189,2.712
-11.09,-11.328,1.366,1.733,0.44,2.457
-9.66,-9.953,0.798,1.557,0.684,2.093
-9.023,-8.912,0.417,1.483,0.67,1.741
-8.512,-8.382,1.002,1.324,0.636,1.358
-9.301,-7.896,1.854,1.117,0.36,0.923
-9.606,-7.309,2.817,0.877,0.304,0.461
-8.515,-6.03,3.29,0.636,0.174,0.274
-6.783,-3.917,3.822,0.455,0.249,0.658
-5.175,-0.821,4.421,0.461,0.11,1.681
-4.062,2.536,5.247,0.647,-0.226,3.086
-5.055,5.799,6.012,0.977,-0.718,4.536
-9.088,6.924,7.193,1.336,-1.636,5.46
-17.174,3.291,8.684,1.399,-2.094,5.392
-28.19,-1.936,10.251,0.27,-1.609,3.743
-36.749,-3.57,16.442,-1.534,0.562,0.652
-45.332,0.592,26.313,-3.209,2.607,-2.476
-46.505,8.722,31.656,-4.302,4.13,-5.292
-36.752,19.051,30.509,-4.583,4.647,-6.999
-24.734,26.429,27.514,-3.416,3.744,-6.484
-18.071,27.454,20.34,-1.449,1.325,-4.223
-8.691,18.944,9.537,0.12,-0.112,-1.85
-5.063,7.87,2.461,1.1,-0.909,0.508
-9.17,-1.642,1.146,1.618,-1.231,2.092
-11.731,-6.968,1.302,1.793,-0.492,2.482
-9.944,-10.147,0.818,1.657,0.147,2.311
-9.94,-9.387,0.327,1.715,0.081,2.045
-9.822,-8.81,1.099,1.678,0.433,1.723
-8.273,-7.213,2.412,1.513,0.456,1.669
-7.155,-5.045,3.929,1.382,0.256,2.106
-6.359,-1.96,5.462,1.203,0.133,2.977
-6.036,1.546,6.977,1.044,-0.426,3.948
-6.869,5.284,7.837,1.13,-1.294,4.886
-10.054,7.184,8.044,1.358,-1.66,5.474
-14.193,6.406,9.102,1.352,-2.382,5.136
-22.088,2.797,9.863,0.916,-1.849,3.724
-29.062,-1.02,11.589,-0.207,-0.602,1.305
-36.174,-1.26,18.16,-1.82,1.773,-1.668
-42.881,5.474,27.364,-3.254,3.667,-4.369
-41.188,14.968,32.016,-4.112,5.007,-6.539
-31.165,23.06,30.278,-3.996,4.602,-7.476
-21.682,27.882,25.929,-2.685,3.121,-6.5
-14.825,25.671,17.945,-0.701,0.716,-4.393
-5.64,15.676,7.603,0.658,-0.48,-2.266
-4.093,4.568,0.882,1.637,-1.097,0.01
-7.453,-2.878,0.538,2.123,-0.941,1.717
-9.453,-7.479,1.234,2.079,-0.194,2.439
-8.509,-8.617,0.973,1.785,0.635,2.701
-9.176,-7.506,1.722,1.848,0.63,2.836
-9.138,-6.011,2.98,1.874,0.876,2.864
-8.107,-4.611,4.592,1.88,0.76,3.068
-7.972,-2.633,6.361,1.799,0.401,3.444
-7.832,-0.007,7.448,1.621,-0.177,3.937
-7.627,2.497,7.684,1.355,-0.618,4.687
-9.492,5.586,7.675,1.12,-1.619,5.119
-12.95,7.191,7.485,0.899,-1.762,5.066
-15.716,6.865,6.981,0.724,-2.288,4.234
-18.305,4.476,6.367,0.398,-1.763,2.936
-23.663,1.932,6.991,-0.218,-0.777,0.885
-28.929,-0.169,10.38,-1.284,1.352,-1.732
-33.413,1.995,17.608,-2.389,2.97,-4.201
-38.378,9.633,25.577,-3.368,4.648,-6.103
-35.669,18.464,29.132,-4.06,4.887,-7.667
-25.808,24.385,26.446,-3.592,3.823,-7.484
-18.883,26.531,21.094,-2.19,1.711,-5.856
-12.979,22.237,12.635,-0.519,0.269,-3.721
-4.794,12.96,3.984,0.843,-0.424,-1.461
-4.732,2.741,0.459,2.105,-0.573,1.054
-9.198,-4.668,1.443,2.46,-0.082,2.377
-9.874,-9.719,2.019,2.287,0.929,2.894
-8.193,-10.437,1.966,1.863,1.108,2.934
-8.592,-9.651,2.096,1.704,0.855,2.771
-7.609,-7.404,1.924,1.489,0.621,2.444
-5.776,-4.611,2.389,1.36,0.418,2.418
-4.467,-0.754,3.455,1.309,0.033,2.902
-5.958,2.901,4.787,1.319,-0.426,3.691
-8.444,5.428,5.97,1.346,-0.88,4.474
-11.747,5.928,7.225,1.417,-1.449,4.938
-16.326,4.958,7.987,1.241,-1.87,4.829
-22.366,0.817,7.757,0.671,-1.514,3.739
-29.071,-3.412,9.859,-0.302,-0.413,1.344
-35.885,-3.179,17.01,-1.762,1.516,-1.535
-41.956,5.855,23.972,-3.355,2.887,-4.187
-40.046,14.735,26.537,-4.34,3.71,-6.519
-30.436,23.19,24.527,-4.037,3.507,-6.957
-20.795,27.547,21.131,-3.058,2.349,-5.489
-12.647,25.03,12.996,-1.617,0.735,-2.942
-3.854,14.584,4.781,-0.134,-0.094,-0.372
-3.289,5.272,0.802,1.238,-0.79,2.191
-8.939,-1.684,2.363,1.879,-0.918,3.36
-12.147,-5.134,2.782,2.208,-0.586,3.591
-11.625,-5.672,2.564,2.37,-0.377,3.369
-11.953,-5.581,2.087,2.491,-0.416,3.065
-11.012,-4.912,2.311,2.287,-0.207,2.682
-9.26,-3.609,2.369,1.883,-0.109,2.464
-6.627,-1.658,2.997,1.442,-0.175,2.652
-6.422,1.336,3.933,1.14,-0.641,2.996
-7.657,4.189,5.038,1.086,-1.077,3.425
-10.133,4.982,6.352,1.046,-1.416,3.78
-14.836,2.897,7.3,0.771,-1.756,3.752
-22.382,-0.838,8.682,0.068,-1.066,2.558
-29.671,-4.305,13.278,-1.08,0.33,-0.112
-36.39,-2.505,22.031,-2.622,2.141,-2.806
-39.7,4.754,28.593,-3.972,2.812,-5.342
-35.216,13.654,29.23,-4.722,3.045,-7.233
-27.034,20.47,24.794,-4.091,1.839,-7.181
-20.069,21.963,18.6,-2.508,0.504,-5.094
-11.884,17.279,8.241,-0.957,-0.598,-2.913
-5.669,8.202,0.204,0.543,-0.674,-0.358
-6.959,-0.32,-1.206,1.754,-0.346,1.898
-9.267,-6.115,1.326,2.061,0.5,2.879
-8.458,-7.193,2.005,1.844,1.186,2.994
-7.756,-7.359,2.834,1.935,1.128,2.985
-8.197,-6.723,3.27,1.907,0.935,2.498
-6.742,-4.989,3.324,1.818,0.773,2.034
-4.836,-1.808,3.88,1.852,0.485,2.242
-4.887,1.753,5.287,1.88,-0.141,3.03
-7.522,6.135,7.111,1.92,-0.862,4.128
-12.293,8.767,9.067,1.969,-1.283,5.07
-17.712,7.88,10.519,1.769,-1.927,5.405
-24.261,3.529,10.456,1.189,-1.687,4.521
-32.023,-2.557,11.601,0.232,-0.652,2.157
-40.222,-5.056,19.643,-1.325,1.691,-1.113
-47.781,4.223,28.746,-3.189,3.124,-4.124
-41.578,17.029,32.767,-4.295,4.056,-6.503
-32.645,27.149,30.846,-4.175,3.349,-6.851
-25.79,33.278,27.93,-3.019,1.985,-5.47
-17.389,31.376,17.788,-1.315,0.218,-3.246
-4.706,18.87,6.338,0.584,-0.571,-1.007
-6.826,4.855,0.316,2.024,-0.988,1.188
-11.376,-4.222,1.27,2.502,-0.272,1.953
-10.73,-8.978,1.245,2.228,0.434,1.876
-8.977,-9.492,0.921,1.897,0.645,1.509
-8.641,-9.436,0.902,1.675,0.606,1.118
-7.249,-8.356,1.088,1.406,0.723,0.81
-6.637,-7.169,1.658,1.175,0.495,0.657
-6.803,-5.526,2.754,1.079,0.566,0.734
-6.282,-4.227,4.529,1.09,0.537,1.219
-6.69,-2.614,5.728,1.148,0.206,2.008
-7.622,-0.236,6.761,1.234,0.009,3.088
-8.524,2.274,7.402,1.297,-0.325,4.346
-10.394,4.152,7.918,1.283,-1.145,5.335
-15.769,3.461,7.63,0.985,-1.791,5.762
-24.872,1.03,6.728,0.216,-1.512,4.978
-31.22,-3.682,8.95,-0.762,0.104,2.73
-42.035,-2.414,18.781,-1.985,2.151,-0.411
-48.834,8.327,28.608,-2.834,4.097,-3.407
-43.555,18.17,31.167,-3.321,4.642,-6.176
-31.725,27.361,29.76,-2.901,3.988,-6.808
-24.622,32.563,25.177,-1.718,1.972,-5.397
-14.059,27.26,14.292,-0.386,0.226,-3.136
-5.188,13.328,2.915,0.448,-1.027,-1.013
-5.497,2.97,-1.308,1.29,-0.941,1.186
-7.871,-5.664,-0.466,1.756,-0.284,2.155
-8.543,-8.753,0.544,1.711,0.417,2.21
-7.73,-7.897,1.085,1.742,0.6,2.005
-8.351,-7.672,1.986,1.851,0.718,1.817
-8.511,-7.508,3.175,1.81,0.708,1.513
-8.995,-6.611,4.438,1.727,0.657,1.371
-7.574,-5.302,5.7,1.55,0.727,1.685
-6.481,-2.502,6.457,1.328,0.328,2.492
-7.538,1.06,7.285,1.238,-0.108,3.509
-8.336,3.685,7.711,1.142,-0.533,4.645
-10.967,5.622,7.801,1.088,-1.25,5.383
-17.073,3.552,6.971,0.954,-1.237,5.291
-24.172,-0.826,5.654,0.229,-0.911,4.012
-31.403,-5.405,6.643,-0.76,0.568,1.567
-42.727,-3.892,15.836,-1.845,2.605,-1.464
-51.323,6.605,25.306,-2.717,4.227,-4.252
-46.938,19.385,30.616,-3.662,4.324,-6.657
-35.74,29.378,29.282,-3.287,3.912,-7.022
-26.493,35.495,25.989,-2.057,2.106,-5.455
-15.997,31.732,16.538,-0.5,0.165,-2.891
-5.173,18.366,6.354,0.453,-0.749,-0.49
-5.239,5.21,1.126,1.687,-1.17,1.792
-10.67,-3.755,2.124,2.222,-0.782,2.697
-10.949,-9.249,2.365,2.121,-0.031,2.708
-10.082,-9.698,1.186,1.815,0.366,2.18
-9.751,-9.678,1.264,1.776,0.61,1.82
-9.942,-8.516,1.618,1.65,0.753,1.461
-9.609,-7.338,2.855,1.554,0.801,1.251
-9.599,-5.824,4.351,1.474,0.717,1.246
-7.998,-4.316,5.726,1.359,0.661,1.71
-8.131,-1.937,5.96,1.337,0.146,2.325
-7.274,0.08,6.074,1.352,-0.163,3.245
-8.186,1.881,6.036,1.366,-0.634,4.18
-10.689,1.511,6.342,1.226,-1.189,4.803
-16.955,-1.014,6.47,0.631,-1.572,4.437
-23.876,-3.896,6.522,-0.504,-0.824,3.033
-31.263,-5.768,10.709,-1.905,0.662,0.397
-40.346,-2.704,21.155,-3.292,2.746,-2.453
-42.594,5.98,27.287,-4.164,4.156,-5.155
-34.351,15.526,26.924,-4.036,4.438,-6.747
-25.492,21.723,24.958,-3.057,3.46,-6.338
-18.516,24.326,19.532,-1.547,1.939,-4.234
-8.551,19.113,8.314,-0.09,0.201,-1.758
-4.536,9.606,1.494,0.972,-0.583,0.684
-7.69,0.378,1.005,1.531,-0.822,2.398
-10.636,-5.788,1.842,1.873,-0.213,2.742
-9.52,-9.62,1.83,1.945,0.088,2.388
-9.772,-10.154,1.614,1.94,0.327,1.891
-9.048,-10.183,1.22,1.858,0.346,1.458
-9.08,-9.427,1.664,1.725,0.71,1.225
-8.03,-8.646,3.065,1.401,0.586,1.254
-8.045,-6.831,4.569,0.996,0.48,1.485
-6.621,-4.626,5.442,0.694,0.249,2.066
-6.404,-1.808,5.865,0.504,-0.105,2.869
-6.179,1.215,5.651,0.489,-0.581,3.797
-7.493,4.026,5.107,0.684,-1.109,4.614
-10.765,4.653,4.988,0.839,-1.461,5.033
-17.303,3.207,5.02,0.652,-2.06,4.483
-23.995,-0.72,5.659,0.071,-0.869,2.875
-33.26,-2.519,11.177,-1.046,0.824,-0.077
-41.842,2.217,21.6,-2.349,2.677,-2.927
-44.553,11.071,27.716,-3.585,3.834,-5.533
-35.755,20.356,28.059,-3.865,4.556,-6.893
-26.795,27.955,25.681,-3.333,3.173,-6.472
-18.016,30.336,19.082,-1.988,1.382,-4.251
-8.807,23.251,8.273,-0.489,-0.034,-1.819
-3.971,12.609,1.71,0.948,-0.738,0.51
-8.072,2.281,0.895,1.809,-1.136,1.916
-11.053,-4.667,2.221,2.224,-0.572,2.124
-9.75,-8.798,2.289,2.201,-0.168,1.703
-9.004,-9.497,1.902,2.05,0.117,1.083
-7.69,-9.256,1.71,1.918,0.36,0.607
-6.849,-8.48,2.092,1.821,0.748,0.424
-6.893,-7.882,3.255,1.691,0.752,0.476
-7.505,-7.436,5.094,1.545,0.682,0.63
-7.563,-7.223,6.418,1.335,0.348,0.908
-7.432,-5.966,6.641,1.112,0.06,1.432
-6.315,-3.713,6.34,0.952,-0.154,2.353
-6.49,-0.342,5.945,0.997,-0.688,3.407
-8.563,1.466,5.785,1.208,-0.844,4.454
-14.865,0.482,6.916,1.129,-1.087,4.98
-25.448,-5.933,8.079,0.418,-0.475,3.71
-36.891,-7.022,15.506,-0.96,1.357,0.915
-47.528,-0.898,26.649,-2.463,2.607,-2.025
-48.144,8.862,32.579,-4.227,2.955,-5.025
-37.2,18.866,29.953,-4.64,3.149,-6.319
-26.883,30.478,27.083,-3.678,1.898,-5.374
-18.467,31.903,19.341,-1.765,-0.167,-2.757
-8.816,22.234,8.235,-0.007,-1.051,-0.193
-7.815,10.407,2.198,1.811,-1.307,2.213
-14.43,0.259,3.145,2.63,-1.177,2.853
-15.332,-6.999,4.298,2.635,-0.289,2.595
-13.423,-9.997,3.707,2.126,0.217,1.698
-11.553,-10.132,2.16,1.623,0.234,0.833
-9.925,-8.883,0.889,1.2,0.528,0.14
-7.691,-7.221,0.548,0.877,0.642,0.004
-7.709,-6.402,1.188,0.722,0.447,0.124
-7.639,-5.707,2.448,0.631,0.331,0.312
-7.497,-4.792,3.885,0.676,0.198,0.668
-6.949,-4.181,4.699,0.808,-0.026,1.281
-6.45,-2.795,5.119,0.932,0.154,2.24
-5.771,0.104,4.964,1.097,-0.294,3.195
-6.023,2.411,5.376,1.398,-0.817,4.406
-9.646,3.422,6.809,1.438,-1.341,5.482
-20.035,1.391,9.019,0.701,-1.877,5.408
-29.001,-3.402,11.757,-0.647,-0.527,3.572
-39.701,-2.677,21.737,-2.174,1.681,0.704
-49.419,6.541,32.976,-3.483,3.368,-2.414
-47.622,16.433,36.315,-4.534,4.605,-5.544
-32.95,24.637,32.514,-4.107,5.102,-6.725
-23.654,32.614,28.066,-2.774,2.824,-5.824
-14.454,30.833,17.518,-1.101,0.818,-3.32
-5.106,19.126,5.184,0.117,-0.269,-0.893
-4.339,6.985,0.318,1.413,-0.774,1.561
-10.171,-1.263,1.303,1.897,-0.71,2.664
-11.251,-7.243,2.345,2.033,0.139,2.894
-10.082,-9.625,2.056,1.911,0.424,2.443
-9.666,-9.928,2.016,1.876,0.339,2.043
-10.36,-9.519,1.776,1.745,0.281,1.498
-9.962,-9.216,2.422,1.578,0.451,1.1
-10.037,-8.229,3.275,1.345,0.297,0.852
-9.75,-6.884,4.32,1.122,0.401,0.833
-8.246,-5.069,4.948,0.937,0.587,1.218
-6.025,-2.442,5.417,0.763,0.475,2.045
-5.676,0.412,5.524,0.73,0.125,3.164
-6.166,2.754,5.436,0.837,-0.337,4.263
-8.22,4.109,5.811,0.993,-0.991,5.03
-13.046,3.291,6.296,0.932,-1.873,5.005
-19.972,0.849,6.501,0.385,-1.833,4.147
-25.008,-2.146,7.996,-0.643,-0.422,2.455
-33.425,-2.681,14.195,-1.862,1.579,-0.478
-41.803,4.454,24.629,-3.076,3.546,-3.279
-42.024,14.612,30.633,-3.837,5.106,-5.666
-32.477,24.0,30.268,-3.583,5.229,-7.139
-24.097,29.474,26.411,-2.512,3.488,-6.89
-15.679,30.014,18.917,-1.001,1.355,-4.803
-6.216,20.611,7.402,0.348,0.018,-2.496
-2.616,9.321,0.776,1.424,-0.809,-0.203
-6.965,-0.878,0.498,1.897,-0.864,1.655
-9.943,-6.441,2.249,1.987,-0.281,2.371
-9.804,-9.104,2.465,1.815,0.305,2.471
-9.582,-9.305,2.483,1.825,0.543,2.36
-9.857,-9.282,2.545,1.865,0.734,2.126
-9.226,-8.417,2.968,1.894,0.987,1.827
-9.017,-7.807,3.7,1.875,0.951,1.552
-8.23,-6.865,4.867,1.771,0.767,1.406
-6.675,-5.179,5.877,1.635,0.357,1.589
-4.832,-2.227,6.124,1.512,-0.075,2.32
-5.196,1.238,6.458,1.498,-0.478,3.359
-6.783,4.524,6.97,1.489,-1.021,4.367
-9.896,6.025,7.608,1.452,-1.054,5.05
-14.762,5.63,7.382,1.21,-1.568,4.904
-20.65,1.358,7.662,0.572,-1.34,3.97
-25.661,-1.894,8.2,-0.622,-0.309,2.201
-30.007,-3.766,12.603,-1.833,1.867,-0.173
-35.777,-1.593,21.219,-2.989,3.425,-2.898
-38.886,9.606,29.786,-3.923,5.05,-5.13
-31.883,22.094,32.477,-4.096,5.165,-6.986
-23.277,28.049,29.426,-3.148,3.753,-7.038
-17.479,29.201,22.689,-1.665,1.375,-5.699
-9.92,23.35,12.426,-0.215,-0.062,-3.61
-2.983,10.986,3.243,1.053,-1.119,-1.483
-5.33,-0.128,-0.352,1.951,-1.26,0.729
-8.337,-5.664,0.815,2.316,-0.581,1.896
-8.54,-7.44,2.543,2.364,0.366,2.503
-8.265,-5.595,4.473,2.407,0.567,2.933
-9.359,-5.03,6.396,2.622,0.576,3.25
-10.659,-4.591,8.041,2.779,0.433,3.228
-11.554,-4.883,9.838,2.758,0.358,2.929
-11.205,-4.8,10.537,2.373,0.146,2.519
-9.6,-3.347,9.82,1.938,0.031,2.293
-7.139,-1.296,8.357,1.509,-0.041,2.459
-6.077,1.935,7.016,1.212,-0.254,2.924
-6.133,4.459,5.775,1.153,-0.66,3.447
-7.686,5.388,5.324,1.129,-1.126,3.75
-14.514,4.352,5.47,0.859,-1.475,3.394
-21.019,1.879,6.618,0.108,-0.398,2.171
-27.251,-0.456,10.561,-0.971,1.137,0.004
-34.781,1.213,19.874,-2.265,3.177,-2.568
-41.599,12.064,29.462,-3.44,4.669,-4.936
-36.152,21.96,32.547,-4.215,5.201,-6.873
-26.953,29.747,29.014,-3.679,4.025,-7.257
-19.625,32.135,23.658,-2.246,2.109,-6.028
-12.973,26.668,14.148,-0.633,0.267,-3.942
-4.387,14.212,3.216,0.64,-0.614,-1.896
-3.351,3.742,-1.454,1.982,-0.688,0.423
-7.532,-3.613,0.843,2.536,-0.479,1.837
-8.756,-6.206,2.95,2.488,0.422,2.615
-6.799,-3.952,3.974,2.4,0.568,3.205
-7.974,-2.772,6.35,2.752,0.402,3.98
-10.325,-1.903,9.258,2.924,0.064,4.399
-11.731,-1.254,10.889,2.842,-0.133,4.583
-12.355,-0.607,10.977,2.555,-0.541,4.582
-13.448,0.653,10.648,2.082,-0.749,4.332
-13.067,1.357,9.014,1.532,-0.849,3.831
-12.543,2.095,6.578,0.986,-1.347,3.047
-13.133,2.258,4.011,0.574,-1.105,2.199
-13.174,1.583,3.221,0.148,-0.742,1.49
-19.165,-0.281,4.784,-0.379,0.005,0.407
-27.167,-1.607,11.066,-1.227,1.446,-1.896
-34.7,4.574,21.169,-2.394,3.539,-3.851
-36.351,13.923,29.732,-3.171,4.272,-5.603
-34.628,21.214,30.235,-3.46,3.699,-7.388
-26.323,25.695,24.803,-2.976,2.669,-7.659
-17.771,27.278,16.885,-1.64,0.994,-5.898
-9.598,19.775,6.457,-0.06,-0.257,-3.767
-5.374,10.046,-1.828,1.072,-0.758,-1.199
-6.007,2.693,-2.43,1.883,-0.082,1.821
-8.993,-1.271,1.661,2.193,0.38,3.822
-11.302,-3.293,4.622,2.094,0.553,4.854
-13.431,-4.077,6.411,2.176,0.248,4.92
-15.061,-5.95,7.7,2.366,0.094,4.141
-15.965,-7.461,8.033,2.393,-0.238,2.56
-14.711,-8.869,7.177,2.198,-0.047,0.781
-12.043,-8.486,5.853,1.784,0.275,-0.614
-8.023,-6.294,5.053,1.27,0.46,-0.981
-5.38,-2.925,4.335,0.889,0.075,-0.438
-3.604,0.62,3.969,0.819,0.064,1.01
-3.657,4.376,4.572,1.032,-0.422,2.917
-7.397,5.819,5.945,1.271,-1.211,4.666
-14.74,3.78,7.583,1.154,-1.648,5.428
-24.63,-1.058,8.281,0.433,-0.621,4.693
-34.224,-3.855,14.13,-0.702,1.019,2.066
-44.477,0.035,25.979,-2.197,2.899,-1.135
-47.111,10.263,33.73,-3.509,4.237,-4.298
-39.957,21.182,33.35,-4.155,4.75,-6.891
-28.29,29.933,29.723,-3.513,3.504,-7.275
-20.146,32.772,22.381,-2.057,1.261,-5.571
-10.796,24.988,9.684,-0.378,-0.187,-3.49
-4.469,11.945,0.716,0.99,-0.699,-1.308
-5.649,0.197,-1.168,2.043,-0.692,0.969
-8.814,-6.549,1.341,2.248,-0.052,1.962
-7.715,-9.515,2.264,2.042,0.846,2.274
-6.821,-9.187,2.944,1.938,1.042,2.512
-7.334,-9.035,3.643,1.954,1.111,2.57
-7.185,-8.358,4.794,2.001,1.009,2.442
-6.986,-7.744,6.241,2.041,0.736,2.43
-7.686,-6.802,7.642,1.845,0.313,2.462
-7.092,-4.894,7.443,1.561,-0.119,2.668
-6.709,-1.312,6.775,1.332,-0.356,3.291
-7.539,2.498,6.272,1.265,-0.56,4.093
-9.328,4.612,5.599,1.179,-0.755,4.852
-13.998,4.518,6.988,0.963,-1.764,5.003
-22.392,1.292,9.619,0.312,-0.507,4.05
-30.645,-1.265,14.758,-0.853,0.442,1.325
-39.477,3.015,27.043,-2.593,2.372,-1.626
-43.69,13.896,36.654,-3.884,3.254,-4.58
-37.817,22.68,37.027,-4.802,4.358,-7.037
-27.614,30.305,30.884,-4.453,2.458,-7.605
-20.322,31.926,23.614,-2.775,0.868,-6.029
-10.951,24.146,10.406,-0.839,-0.652,-4.085
-4.359,11.67,-0.599,0.561,-1.123,-1.753
-5.681,2.77,-3.189,1.945,-0.691,0.986
-8.958,-3.191,1.198,2.534,0.342,2.692
-9.484,-5.724,4.112,2.398,1.177,3.404
-10.157,-6.795,5.714,2.477,1.188,3.554
-11.08,-8.032,7.628,2.552,1.331,3.125
-10.674,-8.728,8.229,2.477,1.124,2.237
-8.927,-8.543,7.715,2.339,0.843,1.488
-7.478,-7.006,7.53,2.13,0.455,1.247
-6.064,-4.503,6.916,1.916,0.272,1.676
-5.581,-1.56,6.799,1.778,-0.113,2.635
-6.922,1.586,7.109,1.649,-0.652,3.644
-10.588,3.014,7.135,1.595,-0.939,4.376
-15.468,2.03,7.606,1.27,-1.456,4.289
-22.146,-2.111,9.165,0.408,-0.629,3.116
-29.066,-4.461,13.152,-1.058,0.608,0.447
-35.798,-2.744,21.518,-2.691,2.537,-2.412
-37.968,5.406,28.925,-4.074,3.567,-5.104
-33.301,13.931,30.458,-4.969,4.394,-7.171
-24.159,22.271,25.594,-4.325,2.923,-7.37
-18.063,24.986,19.155,-2.476,1.173,-5.647
-10.657,21.197,9.629,-0.592,-0.244,-3.249
-5.198,12.04,1.22,0.88,-1.027,-0.563
-6.35,4.235,-0.892,2.299,-1.3,2.279
-11.307,-1.247,3.165,2.678,-0.77,3.791
-11.926,-4.005,5.928,2.489,-0.313,4.211
-12.799,-4.966,6.894,2.443,-0.443,3.877
-13.486,-6.074,7.949,2.512,-0.309,3.088
-13.283,-6.765,7.844,2.381,-0.118,1.879
-11.116,-6.417,7.227,2.217,0.051,0.894
-9.345,-5.095,6.635,2.021,0.071,0.437
-7.614,-3.338,6.194,1.859,-0.149,0.561
-6.115,-1.021,5.802,1.679,-0.12,1.305
-5.13,1.922,5.549,1.515,-0.306,2.46
-6.543,4.584,5.531,1.494,-1.053,3.564
-12.208,4.451,7.553,1.466,-1.142,4.339
-23.5,1.093,10.09,1.063,-0.1,3.766
-33.004,-3.044,15.063,-0.207,0.575,1.259
-42.823,0.429,27.027,-2.046,2.48,-1.562
-48.272,9.199,36.816,-3.563,3.79,-4.346
-43.848,17.29,36.147,-4.685,3.817,-6.999
-31.028,25.32,30.546,-4.787,2.541,-7.641
-22.457,30.393,23.464,-3.169,1.168,-6.017
-13.067,24.396,11.18,-0.941,-0.67,-3.908
-6.563,12.538,1.039,0.728,-1.226,-1.568
-6.392,2.162,-0.724,2.027,-1.022,0.858
-9.084,-4.832,1.988,2.619,-0.381,2.103
-8.637,-8.18,3.437,2.444,0.519,2.495
-8.018,-8.712,3.617,2.312,0.919,2.53
-7.802,-9.036,4.026,2.257,0.893,2.196
-7.646,-7.634,4.357,2.184,0.949,1.634
-6.675,-6.449,4.734,2.199,0.922,1.367
-6.376,-4.115,5.784,2.248,0.747,1.564
-6.544,-1.246,6.642,2.312,0.538,2.187
-7.155,2.425,7.892,2.404,0.215,3.195
-9.196,4.663,9.01,2.461,-0.155,4.363
-13.73,5.277,10.808,2.283,-1.174,5.051
-21.081,-0.308,11.861,1.733,-1.477,4.49
-28.747,-5.908,14.312,0.232,-1.012,2.466
-36.343,-7.145,22.434,-1.84,0.967,-0.548
-41.667,-2.85,33.189,-3.688,1.959,-3.58
-41.76,5.708,38.253,-5.676,2.728,-6.218
-33.307,19.367,36.421,-6.637,2.808,-6.955
-23.728,28.369,30.954,-5.539,1.743,-6.073
-17.273,29.767,20.539,-3.168,-0.43,-3.96
-10.75,23.064,8.404,-1.006,-1.19,-1.66
-7.305,13.157,1.689,1.401,-0.994,0.591
-10.465,2.439,2.006,3.072,-1.028,1.554
-12.822,-5.223,4.079,3.425,-0.206,1.778
-10.956,-9.503,4.041,2.96,0.476,1.429
-9.275,-10.037,3.694,2.511,0.926,0.927
-7.509,-9.777,3.295,2.189,1.043,0.567
-6.351,-9.436,3.834,1.896,1.328,0.563
-5.75,-8.689,4.653,1.652,0.977,0.7
-5.125,-8.167,5.954,1.502,0.452,1.034
-4.986,-6.734,6.374,1.444,-0.102,1.642
-4.725,-4.48,6.857,1.316,-0.334,2.65
-4.628,-0.053,6.993,1.285,-0.878,3.722
-6.691,4.306,6.981,1.582,-1.393,4.792
-11.148,6.181,8.79,1.835,-1.509,5.513
-19.732,4.362,11.339,1.675,-1.706,4.975
-27.051,-1.5,13.773,0.743,-1.107,2.861
-36.251,-3.03,22.201,-1.135,0.999,-0.221
-43.461,3.652,33.16,-3.066,2.371,-3.276
-41.868,12.953,36.87,-4.963,2.924,-6.095
-30.703,23.144,31.993,-5.465,2.979,-7.015
-23.727,31.739,26.768,-4.154,1.886,-6.018
-16.081,30.083,18.067,-1.765,-0.03,-3.603
-7.333,19.503,6.269,-0.07,-0.694,-1.235
-5.802,8.591,-0.044,1.855,-0.868,1.285
-10.455,-0.781,2.576,2.797,-0.628,2.766
-11.668,-5.786,5.756,2.677,0.084,3.261
-9.702,-5.437,5.601,2.326,0.239,3.2
-9.294,-3.55,6.481,2.596,0.163,3.345
-9.071,-1.943,8.079,2.75,-0.074,3.378
-9.71,-0.303,9.276,2.875,-0.379,3.305
-9.73,0.732,9.821,2.808,-0.693,3.408
-10.404,1.505,10.593,2.519,-1.109,3.365
-10.753,1.844,10.096,2.1,-1.588,3.18
-11.714,2.043,9.741,1.603,-1.746,2.712
-11.763,1.9,7.538,1.079,-1.271,2.055
-11.24,2.077,6.968,0.683,-0.585,1.364
-13.221,0.804,7.521,0.224,-0.018,0.587
-15.65,-1.045,9.853,-0.481,0.984,-0.622
-17.868,-2.755,13.961,-1.49,2.115,-2.189
-22.618,-1.926,23.322,-3.151,2.785,-3.886
-27.053,7.081,31.859,-4.906,2.072,-5.576
-25.491,15.755,31.703,-6.014,1.628,-6.854
-22.3,20.141,26.207,-5.597,0.117,-7.015
-19.97,21.689,19.374,-4.31,-0.948,-5.948
-12.333,19.19,9.982,-2.464,-1.544,-4.1
-8.091,9.4,-0.452,-0.367,-1.408,-1.903
-7.653,-0.371,-2.383,1.301,-0.66,0.19
-8.624,-4.679,0.131,1.798,0.697,1.534
-7.642,-6.081,2.532,1.862,1.699,2.312
-8.445,-5.09,3.831,2.094,1.959,2.771
-7.7,-4.403,5.57,2.392,2.317,2.986
-6.52,-2.452,6.567,2.827,1.982,3.324
-6.298,-0.568,8.235,3.073,1.573,4.051
-7.565,2.398,9.374,2.98,0.562,4.812
-9.927,5.204,10.786,2.741,-0.509,5.379
-12.749,7.452,11.968,2.359,-1.53,5.473
-14.891,8.153,12.783,1.854,-2.024,5.13
-16.297,7.151,12.057,1.379,-3.025,4.141
-18.482,3.658,10.682,0.828,-2.872,2.892
-23.22,-1.293,9.817,0.114,-1.554,1.341
-28.978,-4.767,14.362,-1.057,0.655,-0.863
-36.931,-1.791,27.531,-2.713,2.724,-3.207
-44.656,7.957,40.556,-4.627,3.949,-5.247
-42.729,20.088,44.082,-6.103,4.261,-7.122
-34.493,30.305,39.826,-5.874,3.115,-7.766
-26.307,34.45,31.666,-4.269,1.142,-6.64
-17.469,29.851,16.695,-2.0,-0.651,-4.755
-8.024,19.145,2.956,0.38,-0.793,-2.733
-6.353,5.983,-0.608,2.668,-0.639,-0.548
-7.825,-3.913,2.653,3.328,0.168,0.906
-7.789,-8.911,4.618,2.988,1.161,1.587
-6.755,-9.69,4.943,2.499,1.523,1.903
-7.338,-10.113,5.4,2.358,1.709,2.09
-7.9,-9.828,5.92,2.171,1.69,1.969
-7.77,-9.57,6.548,2.067,1.47,1.782
-7.567,-8.745,7.158,2.037,0.955,1.682
-7.302,-7.767,7.674,1.963,0.653,1.756
-5.68,-5.674,7.707,1.733,0.35,2.285
-4.821,-1.36,7.48,1.482,-0.083,3.218
-5.383,2.397,6.884,1.454,-0.421,4.412
-8.395,4.905,7.74,1.484,-1.296,5.177
-16.769,2.731,9.633,1.293,-1.914,5.042
-24.807,-1.977,12.496,0.325,-1.077,3.67
-32.648,-4.137,21.006,-1.281,0.847,0.671
-41.674,4.423,33.748,-3.03,2.445,-2.469
-41.299,12.773,39.153,-4.511,3.581,-5.241
-31.478,23.984,37.08,-5.381,4.366,-6.858
-21.845,32.649,30.548,-4.288,2.897,-6.754
-15.003,33.737,21.437,-1.89,0.708,-4.559
-7.032,20.995,9.437,0.131,-0.516,-2.277
-5.162,9.951,2.397,1.705,-0.676,-0.028
-8.777,-0.474,1.792,2.951,-0.396,1.641
-11.776,-7.145,5.084,2.977,0.716,2.274
-11.338,-10.15,4.557,2.252,1.556,2.085
-9.672,-9.254,3.608,1.833,1.855,1.832
-9.215,-8.899,3.649,1.614,1.777,1.626
-8.646,-8.152,4.421,1.41,1.426,1.519
-7.982,-6.901,5.099,1.205,0.911,1.644
-7.147,-4.883,5.541,1.083,0.473,2.108
-6.326,-2.349,5.776,1.053,0.004,2.982
-6.752,0.589,6.121,1.072,-0.517,3.917
-7.373,3.365,6.749,1.07,-1.126,4.847
-10.766,5.074,7.617,1.141,-1.994,5.295
-16.005,3.966,9.582,0.899,-3.008,4.933
-23.588,1.02,11.77,0.249,-1.682,3.502
-29.848,-1.235,17.083,-1.026,0.363,0.833
-37.293,2.415,28.032,-2.553,2.675,-2.183
-40.179,12.11,36.329,-4.058,4.5,-4.857
-33.036,23.533,37.766,-4.907,5.939,-6.664
-22.853,31.568,33.042,-4.478,4.086,-6.957
-16.659,34.713,26.012,-2.744,1.742,-5.479
-9.032,28.055,14.365,-0.68,-0.237,-3.377
-3.712,15.683,4.775,1.084,-1.168,-1.37
-6.613,2.954,1.281,2.529,-1.638,0.249
-10.266,-5.311,3.408,3.036,-0.82,0.866
-9.438,-9.764,4.221,2.676,0.126,0.844
-8.224,-9.788,3.884,2.171,0.782,0.601
-6.877,-9.019,3.86,2.006,1.084,0.522
-6.014,-8.0,4.785,1.952,1.384,0.607
-4.423,-6.912,5.93,1.95,1.215,1.042
-4.079,-5.343,7.431,1.98,1.032,1.854
-3.771,-2.799,8.787,1.91,0.536,2.981
-5.983,0.542,9.479,1.84,-0.259,3.993
-7.986,3.927,10.004,1.719,-0.66,4.934
-12.22,5.914,10.044,1.714,-1.387,5.332
-17.921,4.041,10.349,1.4,-2.067,4.801
-25.076,-0.791,11.489,0.749,-0.98,3.201
-29.97,-4.349,17.6,-0.654,1.038,0.544
-36.924,-1.715,30.024,-2.613,2.973,-2.402
-39.457,7.134,38.849,-4.597,4.092,-5.031
-33.247,17.483,39.497,-5.793,4.809,-6.872
-24.662,27.217,33.54,-5.451,3.422,-6.984
-18.248,31.029,24.984,-3.608,1.417,-5.386
-11.493,25.546,11.566,-1.133,-0.462,-3.321
-6.343,14.473,2.14,0.939,-0.597,-1.271
-7.999,4.201,0.745,2.628,-0.401,0.633
-10.098,-4.132,4.534,3.193,0.137,1.344
-10.294,-8.967,5.868,2.82,0.916,1.406
-7.919,-9.817,5.063,2.253,1.321,1.294
-6.923,-9.353,4.332,2.04,1.326,1.36
-5.893,-7.994,4.381,1.985,1.169,1.461
-5.492,-6.877,5.239,2.055,1.034,1.73
-4.626,-5.042,6.411,2.16,0.679,2.231
-4.793,-3.097,7.733,2.215,0.299,3.045
-5.981,-0.751,8.578,2.098,-0.32,3.827
-7.583,2.339,8.982,1.704,-0.521,4.629
-9.829,5.492,8.72,1.383,-1.176,5.106
-15.023,5.727,9.258,1.052,-2.399,4.761
-20.327,3.243,10.1,0.53,-1.964,3.826
-26.655,-0.711,12.106,-0.291,-0.961,1.868
-32.604,-2.58,21.991,-1.544,0.919,-1.074
-37.725,1.727,34.728,-3.227,2.866,-3.805
-36.219,11.997,41.777,-4.982,4.854,-5.905
-28.77,22.852,40.268,-5.65,4.384,-7.215
-21.139,30.607,35.191,-5.035,3.114,-6.917
-14.399,32.11,22.766,-3.374,1.18,-5.097
-7.574,24.794,8.845,-1.226,-0.254,-2.981
-5.149,13.084,0.907,0.968,-0.685,-0.827
-8.263,1.62,0.689,2.283,-0.568,0.665
-9.51,-6.006,2.959,2.657,0.27,1.293
-8.89,-9.9,3.489,2.428,0.763,1.252
-8.185,-10.113,2.985,2.018,1.137,1.045
-6.979,-9.243,2.255,1.761,1.119,0.978
-6.532,-7.642,2.769,1.657,1.211,1.113
-5.339,-5.905,3.565,1.682,0.94,1.56
-4.993,-3.885,5.384,1.832,0.665,2.387
-4.989,-1.454,7.155,2.04,0.124,3.445
-6.701,1.434,8.442,2.273,-0.62,4.426
-7.722,4.832,9.094,2.46,-1.141,5.299
-10.113,6.883,10.662,2.499,-2.035,5.81
-15.358,6.993,12.754,2.166,-2.67,5.525
-20.942,4.31,13.644,1.269,-1.928,4.335
-23.739,1.352,15.937,-0.059,-0.135,2.402
-28.216,0.51,22.814,-1.804,2.067,-0.342
-33.517,5.323,32.25,-3.48,4.456,-3.167
-32.306,15.268,39.009,-4.85,6.143,-5.559
-25.134,26.298,38.891,-5.449,6.041,-7.113
-18.318,32.326,32.152,-4.695,4.494,-7.057
-12.373,32.448,22.759,-2.938,2.37,-5.392
-6.342,23.649,11.112,-1.155,0.713,-3.145
-3.542,11.903,1.281,0.502,-0.409,-1.084
-5.489,0.473,-1.124,1.901,-0.697,0.702
-8.195,-6.086,1.423,2.411,-0.368,1.476
-7.582,-8.493,2.106,2.369,0.187,1.639
-6.914,-6.476,2.282,2.464,0.377,1.599
-6.637,-5.94,3.228,2.724,0.86,1.821
-5.813,-5.319,5.236,2.927,1.004,2.224
-5.821,-4.262,7.366,2.906,0.86,2.812
-6.35,-2.604,8.967,2.751,0.427,3.509
-7.113,-0.162,10.457,2.455,-0.494,4.005
-8.497,2.468,10.522,2.296,-1.195,4.456
-10.752,4.937,10.223,2.089,-2.225,4.537
-15.453,4.265,9.904,1.814,-2.863,4.215
-23.67,0.774,11.696,1.221,-1.751,2.882
-30.779,-2.684,17.743,-0.068,0.425,0.179
-38.082,1.992,31.528,-2.313,1.914,-2.556
-43.241,10.528,42.331,-4.458,2.99,-5.048
-39.962,21.107,43.871,-6.004,3.368,-7.266
-32.544,30.205,37.722,-5.956,1.983,-7.882
-24.268,33.816,28.161,-4.482,0.413,-6.338
-15.687,26.275,13.04,-2.145,-0.745,-4.32
-8.899,15.287,0.806,0.025,-0.821,-2.221
-7.571,3.35,-1.985,1.853,-0.109,0.015
-7.027,-4.802,0.923,2.403,0.639,1.397
-6.504,-8.273,2.175,2.259,1.19,2.159
-6.436,-8.552,2.652,2.133,1.099,2.386
-6.711,-8.784,3.212,2.141,1.058,2.377
-6.795,-7.965,3.518,2.091,0.64,2.109
-7.026,-7.348,4.735,2.136,0.549,1.894
-6.905,-6.393,6.346,2.147,0.294,1.923
-7.158,-4.591,7.54,2.091,0.169,2.189
-7.173,-2.168,8.43,2.133,-0.001,2.809
-7.477,0.809,8.855,2.24,-0.296,3.688
-8.691,3.503,9.756,2.392,-0.928,4.553
-13.729,3.074,11.247,2.372,-1.752,4.91
-21.748,-1.564,12.266,1.564,-1.635,4.134
-28.172,-5.885,15.834,-0.049,-0.41,2.117
-37.032,-5.564,27.847,-2.335,1.645,-0.742
-44.211,2.17,39.124,-4.451,2.965,-3.628
-41.84,11.995,42.186,-6.248,3.722,-6.32
-31.076,23.809,37.375,-6.281,3.235,-7.251
-24.165,30.125,30.416,-4.553,1.544,-6.414
-15.86,27.604,18.362,-1.892,-0.212,-4.374
-7.531,17.047,4.974,0.091,-1.033,-2.316
-6.187,6.413,-0.355,2.235,-0.693,-0.009
-9.332,-3.426,3.481,3.266,0.466,1.492
-9.669,-8.658,6.115,3.072,1.276,2.235
-8.55,-9.57,5.414,2.618,1.789,2.539
-8.16,-9.753,6.483,2.629,2.024,2.828
-8.039,-9.906,7.278,2.32,1.701,2.608
-6.575,-9.062,6.569,2.006,0.994,2.248
-6.06,-7.444,6.684,1.856,0.418,2.054
-5.963,-5.39,7.291,1.613,-0.037,2.086
-5.973,-2.1,7.163,1.432,-0.596,2.361
-6.821,2.038,7.045,1.497,-1.0,2.931
-7.762,4.994,7.203,1.836,-1.119,3.821
-9.954,6.244,8.123,2.087,-1.373,4.535
-15.068,5.289,9.741,1.885,-1.603,4.809
-23.125,2.002,10.944,1.157,-0.544,3.977
-26.592,-0.424,15.612,-0.059,1.608,1.984
-34.804,2.107,24.428,-1.751,3.497,-0.848
-40.457,12.406,34.125,-3.079,5.271,-3.643
-35.916,23.551,36.93,-3.88,5.84,-6.292
-22.924,32.108,33.146,-3.582,5.236,-7.088
-15.903,35.041,25.263,-2.491,2.82,-6.043
-10.052,29.881,15.79,-0.673,0.605,-3.855
-2.53,17.266,4.317,0.518,-0.296,-1.963
-1.994,5.009,-1.041,1.719,-0.64,0.031
-6.839,-3.694,0.576,2.286,-0.47,1.144
-8.656,-7.556,2.371,2.376,0.334,1.552
-6.545,-7.86,2.941,2.132,1.066,1.511
-6.871,-7.589,4.029,2.16,0.904,1.721
-7.263,-6.852,4.964,2.142,0.925,1.882
-7.441,-5.996,6.35,2.148,0.806,2.12
-7.519,-4.55,7.76,2.118,0.672,2.567
-6.954,-1.962,8.592,2.058,0.218,3.285
-7.913,1.084,8.85,2.16,-0.394,4.092
-8.989,3.145,9.581,2.097,-0.815,4.9
-12.714,4.272,9.371,2.007,-1.668,5.119
-16.942,2.342,10.499,1.451,-1.973,4.579
-23.351,-1.426,11.663,0.409,-0.708,2.996
-27.556,-3.581,16.199,-1.187,0.982,0.534
-34.562,-1.736,25.174,-2.855,2.952,-2.429
-38.534,7.017,34.187,-4.381,4.347,-4.994
-35.911,17.735,36.739,-5.369,4.925,-7.018
-26.818,26.773,32.049,-5.09,3.653,-7.418
-20.056,30.041,24.187,-3.61,2.023,-6.196
-11.844,26.797,13.286,-1.686,0.256,-3.918
-4.877,16.137,3.281,-0.067,-0.574,-1.668
-4.386,5.146,-1.219,1.564,-0.693,0.562
-7.411,-3.371,1.009,2.364,-0.345,1.76
-8.761,-7.923,3.098,2.438,0.288,2.157
-8.4,-9.132,3.422,2.365,0.708,2.047
-7.941,-8.865,4.02,2.448,1.062,2.091
-7.207,-8.296,4.917,2.394,1.099,2.177
-6.257,-7.141,5.878,2.353,0.876,2.423
-5.584,-5.292,6.608,2.352,0.475,2.894
-5.585,-2.894,7.787,2.26,0.046,3.591
-5.889,0.638,8.287,2.068,-0.568,4.258
-6.967,4.685,8.547,1.946,-1.124,4.916
-9.491,7.532,8.286,1.811,-1.371,5.389
-12.136,7.854,9.353,1.509,-1.837,5.278
-17.592,6.313,10.03,0.85,-2.114,4.158
-21.275,2.696,12.006,-0.028,-0.232,2.546
-26.757,0.774,17.588,-1.434,1.273,-0.117
-32.206,5.01,29.267,-3.075,3.375,-2.915
-35.556,15.676,38.664,-4.436,4.922,-5.342
-30.582,25.452,39.823,-5.346,5.569,-7.088
-22.307,32.535,33.497,-4.946,3.853,-7.305
-15.013,35.197,24.829,-3.322,2.241,-5.69
-9.021,28.998,13.053,-1.167,0.4,-3.325
-4.327,16.301,2.639,0.571,-0.424,-1.09
-5.057,5.134,0.384,2.256,-0.6,1.112
-10.049,-2.96,3.952,2.845,-0.181,1.917
-10.645,-8.167,5.682,2.712,0.576,1.827
-8.67,-9.509,4.412,2.3,0.873,1.461
-8.174,-8.397,4.277,2.322,0.881,1.448
-7.535,-7.783,5.57,2.194,1.065,1.589
-6.108,-5.734,6.794,2.098,0.5,2.017
-5.834,-3.493,7.585,2.219,-0.049,2.807
-6.418,-0.83,9.578,2.365,-0.424,3.723
-7.556,2.36,10.342,2.406,-0.838,4.469
-9.066,5.184,10.222,2.427,-1.314,4.996
-11.412,5.906,10.0,2.42,-1.646,5.156
-15.813,4.433,10.546,1.929,-1.753,4.521
-20.974,1.036,10.65,1.118,-1.09,2.953
-25.175,-2.419,14.4,-0.191,0.238,0.653
-31.367,-1.318,23.076,-2.055,2.161,-2.217
-37.658,8.578,34.287,-3.897,3.88,-4.74
-35.31,18.801,39.284,-5.222,4.572,-6.733
-28.592,28.751,37.539,-5.58,3.737,-7.555
-22.644,33.262,30.101,-4.58,2.12,-7.057
-14.764,30.671,18.834,-2.487,0.298,-5.225
-6.301,18.328,5.966,-0.579,-0.762,-3.229
-5.112,7.627,-0.485,1.132,-0.925,-1.077
-6.522,-2.074,-0.498,2.113,-0.368,0.545
-7.46,-7.084,1.933,2.218,0.539,1.485
-7.004,-8.271,3.013,1.998,1.059,1.797
-7.388,-7.156,4.145,2.138,1.252,1.947
-6.496,-6.611,5.193,2.272,1.513,2.098
-5.84,-5.275,6.956,2.442,1.372,2.423
-5.204,-3.946,7.937,2.598,0.815,2.95
-6.119,-2.182,9.154,2.631,0.406,3.678
-6.561,0.033,9.762,2.434,-0.195,4.513
-8.939,3.034,9.859,2.153,-1.073,5.042
-11.984,4.587,9.215,1.856,-1.619,5.225
-15.203,4.193,10.216,1.245,-1.36,5.016
-21.66,2.315,9.978,0.321,-1.047,3.743
-26.678,-0.38,12.42,-0.685,0.585,1.43
-33.487,-0.186,20.949,-2.143,2.788,-1.402
-39.423,7.879,31.11,-3.494,4.181,-4.055
-37.549,17.399,34.746,-4.672,4.875,-6.479
-25.771,25.045,32.772,-4.606,4.661,-6.966
-19.149,29.932,28.075,-3.839,2.753,-5.95
-11.345,28.572,18.283,-2.089,0.528,-3.815
-3.772,18.849,7.387,-0.356,-0.574,-1.692
-3.367,8.602,2.383,1.592,-1.418,0.589
-10.02,0.272,3.863,2.674,-1.556,1.651
-12.404,-5.619,5.306,3.139,-0.685,1.89
-11.875,-8.84,5.397,2.862,0.001,1.533
-11.317,-9.837,4.868,2.389,0.618,1.106
-9.488,-8.974,3.65,1.923,0.91,0.541
-7.948,-7.524,4.09,1.637,1.258,0.158
-5.477,-5.089,5.05,1.405,1.29,0.323
-4.054,-2.365,5.946,1.592,0.87,0.969
-2.756,0.761,6.537,2.024,0.321,2.259
-4.608,4.036,9.253,2.373,-0.191,3.936
-7.91,6.396,10.965,2.457,-1.124,5.323
-13.859,6.117,12.724,2.237,-2.091,5.889
-21.421,2.445,14.281,1.523,-1.528,5.191
-28.418,-2.027,18.11,-0.039,-0.352,3.052
-36.213,-3.807,26.946,-2.255,1.713,-0.339
-41.881,3.453,36.759,-4.221,3.336,-3.519
-39.38,12.594,39.986,-5.646,4.532,-6.173
-30.297,23.464,37.172,-5.978,4.149,-7.117
-23.074,29.763,31.033,-4.64,2.478,-6.553
-15.509,28.713,19.824,-2.256,0.525,-4.486
-6.616,18.01,7.211,-0.251,-0.302,-2.409
-4.437,7.543,1.191,1.628,-0.467,-0.16
-7.186,-1.947,2.143,2.705,-0.263,1.314
-8.893,-7.147,4.384,2.845,0.647,2.096
-7.712,-8.765,4.838,2.573,1.104,2.212
-7.759,-8.435,5.09,2.639,1.16,2.284
-7.913,-8.451,6.142,2.579,1.19,2.205
-7.768,-8.247,6.645,2.473,0.995,1.99
-7.507,-7.496,7.306,2.287,0.862,1.91
-7.347,-6.446,7.792,2.045,0.644,1.976
-6.366,-4.577,7.896,1.634,0.498,2.376
-5.635,-0.708,7.147,1.299,0.051,3.101
-6.321,3.334,7.573,1.195,-0.315,4.068
-9.235,5.629,8.248,1.243,-1.571,4.536
-15.773,3.302,9.278,1.124,-2.167,4.376
-23.696,-1.813,12.603,0.385,-1.053,3.251
-31.758,-5.171,21.158,-1.102,0.852,0.549
-40.312,-0.854,34.799,-3.04,2.768,-2.458
-41.528,7.639,43.89,-4.926,4.281,-5.041
-34.168,19.732,42.924,-6.048,4.746,-6.661
-25.247,29.205,36.251,-5.28,3.057,-6.777
-19.443,31.607,26.312,-3.097,0.939,-5.0
-10.808,22.831,11.889,-0.717,-0.296,-2.876
-7.125,11.688,1.553,1.357,-0.421,-0.677
-9.005,0.15,0.551,2.881,-0.116,0.971
-11.228,-6.632,3.654,3.183,1.039,1.719
-8.769,-9.768,4.235,2.678,1.842,1.817
-8.053,-8.939,3.551,2.245,1.528,1.71
-7.727,-8.452,2.831,2.057,1.325,1.493
-7.234,-7.481,3.521,1.925,1.271,1.403
-6.549,-6.416,4.034,1.727,0.874,1.526
-6.495,-4.925,5.077,1.594,0.526,1.92
-6.272,-2.927,6.223,1.422,0.33,2.639
-6.436,-0.614,7.49,1.174,-0.021,3.608
-7.411,2.806,8.097,0.871,-0.638,4.534
-9.673,4.764,8.722,0.681,-1.808,5.206
-14.722,4.793,8.54,0.525,-2.785,5.086
-19.683,2.001,8.655,0.088,-2.322,4.326
-25.661,-1.003,10.315,-0.699,-0.905,2.604
-32.011,-3.161,17.241,-1.749,1.307,-0.198
-39.29,1.399,27.804,-2.867,3.916,-3.049
-38.172,10.829,36.07,-3.795,5.618,-5.394
-30.419,20.81,36.092,-4.158,5.325,-6.975
-21.527,26.623,30.853,-3.405,3.36,-6.784
-16.642,27.939,22.429,-1.659,0.757,-4.991
-8.285,19.479,10.522,-0.034,-0.65,-3.074
-4.896,9.214,1.376,1.291,-1.366,-1.009
-8.245,-0.729,0.162,2.419,-1.1,0.831
-11.638,-6.656,2.817,2.784,0.075,1.609
-8.99,-9.976,3.348,2.404,1.275,1.841
-8.26,-8.316,3.397,2.155,1.489,2.047
-8.152,-8.421,4.251,2.074,1.811,2.141
-7.305,-7.1,5.089,1.959,1.71,2.077
-6.241,-5.699,6.246,1.895,1.488,2.22
-5.926,-3.763,7.288,1.814,0.938,2.593
-6.871,-2.061,8.145,1.76,0.041,3.054
-8.127,0.068,8.105,1.66,-0.495,3.668
-9.758,2.347,7.949,1.478,-0.929,4.287
-11.596,3.579,8.147,1.215,-1.585,4.678
-16.101,3.63,8.179,0.864,-3.097,4.15
-19.42,0.416,8.102,0.243,-1.825,3.362
-22.778,-3.756,9.177,-0.709,-0.919,1.836
-29.637,-7.003,17.791,-2.042,1.149,-0.534
-38.226,-3.53,30.324,-3.675,3.147,-3.265
-38.894,6.322,39.61,-4.856,5.885,-5.285
-33.557,18.476,38.442,-5.186,4.682,-6.991
-27.693,26.731,33.103,-4.105,3.443,-6.942
-20.535,28.723,23.754,-1.981,1.464,-5.25
-10.861,21.758,10.165,-0.032,0.261,-3.086
-6.428,10.335,0.23,1.798,-0.474,-0.773
-7.684,-1.175,0.921,2.882,0.193,1.425
-9.641,-8.581,4.796,2.882,1.235,2.393
-8.382,-10.352,4.804,2.382,1.785,2.532
-8.836,-9.64,5.48,2.397,1.994,2.642
-7.906,-9.572,5.531,2.089,1.991,2.48
-7.209,-9.483,5.66,1.894,1.83,2.282
-6.32,-8.369,5.829,1.679,1.096,2.061
-6.752,-7.426,6.07,1.361,0.461,1.878
-4.907,-4.906,5.191,1.038,-0.111,2.065
-4.554,-1.199,4.97,0.835,-0.723,2.762
-5.42,3.43,5.632,0.869,-1.453,3.697
-7.678,6.787,8.165,0.965,-2.197,4.522
-13.949,6.355,10.497,0.881,-2.783,4.89
-20.047,2.946,12.05,0.297,-2.297,4.226
-26.643,-1.868,15.721,-0.649,-0.297,2.576
-32.625,-4.755,26.175,-2.285,2.039,-0.435
-39.472,3.773,36.85,-4.025,4.242,-3.301
-34.754,12.831,40.654,-5.247,5.304,-5.739
-27.876,23.121,38.002,-5.439,4.813,-6.761
-21.118,29.202,31.457,-4.257,2.737,-6.527
-15.055,29.291,19.477,-2.198,0.727,-4.635
-6.236,17.014,5.74,-0.27,-0.411,-2.51
-4.393,8.332,-0.216,1.462,-0.513,-0.139
-7.271,-0.579,1.152,2.8,-0.357,1.517
-9.037,-6.11,4.555,3.197,0.323,2.346
-9.764,-8.323,5.528,3.068,0.964,2.437
-9.676,-8.544,6.037,3.087,1.249,2.235
-9.527,-9.554,5.977,3.006,1.438,1.747
-8.043,-9.622,6.552,2.785,1.595,1.259
-7.184,-9.107,6.749,2.329,1.307,0.892
-5.202,-7.58,7.211,1.951,0.896,0.908
-4.411,-5.227,7.073,1.721,0.279,1.312
-4.142,-1.754,7.318,1.581,-0.052,2.319
-5.036,2.134,7.569,1.617,-0.595,3.566
-9.212,4.654,8.428,1.725,-1.069,4.661
-18.179,1.758,9.934,1.492,-1.527,4.78
-24.405,-3.579,12.02,0.401,-0.419,3.529
-32.061,-6.345,18.383,-1.335,1.155,0.785
-41.226,-4.559,29.023,-3.248,2.662,-2.404
-41.688,3.769,35.613,-5.011,3.652,-5.394
-31.283,15.873,34.239,-5.76,3.918,-6.975
-24.881,25.38,29.275,-4.651,2.168,-6.733
-19.938,26.849,21.87,-2.341,0.141,-4.943
-10.559,20.396,10.344,-0.301,-0.687,-3.097
-6.145,8.594,2.119,1.668,-0.899,-1.048
-8.331,-2.145,1.044,2.842,-0.295,0.533
-9.995,-8.663,3.598,2.895,1.132,1.376
-7.923,-11.137,4.501,2.298,2.069,1.622
-8.004,-10.317,4.537,2.027,2.088,1.928
-7.973,-9.609,4.867,1.79,2.235,1.984
-7.763,-9.073,5.443,1.701,2.145,1.891
-6.803,-8.496,6.033,1.633,1.635,1.748
-5.722,-7.048,6.149,1.543,1.154,1.801
-3.958,-5.088,5.979,1.444,0.71,2.27
-2.728,-1.675,5.846,1.347,-0.015,3.178
-3.476,2.767,6.869,1.268,-0.922,4.216
-6.606,6.612,7.516,1.396,-1.57,5.016
-9.56,8.126,8.986,1.348,-2.103,5.283
-14.539,7.484,9.75,1.334,-2.382,4.66
-17.979,3.394,10.538,1.036,-2.062,3.444
-21.79,-1.726,11.738,0.006,-0.715,1.891
-24.512,-5.744,17.595,-1.741,1.559,-0.024
-31.606,-4.566,26.649,-3.565,3.556,-2.529
-34.943,7.143,37.489,-5.053,4.923,-4.525
-33.724,19.266,40.176,-6.021,5.081,-6.323
-25.322,27.67,34.872,-5.189,4.196,-6.743
-19.639,31.085,26.44,-3.168,1.769,-5.869
-12.569,26.15,16.054,-0.8,0.531,-3.697
-5.39,13.518,4.484,0.789,-0.263,-1.535
-4.62,2.138,0.433,2.208,-0.123,0.782
-8.796,-5.561,3.163,2.626,0.382,2.023
-9.314,-9.082,5.223,2.381,1.527,2.606
-7.936,-7.666,4.994,2.158,1.562,2.687
-8.473,-7.628,5.954,2.489,1.851,2.759
-7.475,-7.123,7.672,2.62,1.711,2.749
-7.11,-5.314,8.389,2.645,1.23,2.866
-6.242,-3.259,8.689,2.513,0.722,3.436
-6.576,0.356,8.903,2.115,0.123,4.18
-7.706,2.788,8.514,1.514,-0.769,4.967
-11.802,4.386,7.033,1.074,-1.557,5.161
-15.996,2.841,7.311,0.398,-1.927,4.616
-22.281,0.043,8.797,-0.492,-0.799,3.037
-28.052,-2.874,13.647,-1.65,0.751,0.52
-35.172,-0.84,23.612,-3.041,2.86,-2.5
-38.703,8.537,33.676,-4.274,4.474,-5.002
-34.442,18.158,36.112,-5.102,5.225,-6.915
-24.923,26.283,31.237,-4.747,3.901,-6.996
-17.838,29.604,24.335,-3.289,2.067,-5.568
-11.126,25.123,14.035,-1.273,0.019,-3.319
-4.592,14.186,3.601,0.231,-0.921,-1.316
-5.289,4.23,-0.59,1.779,-1.177,0.78
-9.831,-2.984,1.537,2.611,-0.793,1.56
-10.265,-7.524,3.12,2.715,0.279,1.767
-8.728,-7.779,2.581,2.503,0.741,1.626
-8.847,-7.841,3.485,2.618,1.175,1.73
-8.041,-7.044,5.096,2.523,1.547,1.799
-6.665,-5.856,6.712,2.277,1.492,2.129
-6.016,-3.407,7.64,2.071,1.031,2.801
-6.35,-0.731,9.051,1.82,0.288,3.641
-8.492,2.1,8.806,1.603,-0.489,4.435
-9.991,4.343,8.133,1.246,-0.95,5.159
-12.86,5.239,7.129,0.952,-1.676,5.326
-18.822,3.955,6.356,0.592,-2.201,4.494
-23.258,0.113,6.102,0.023,-0.92,2.889
-26.312,-2.319,9.6,-1.054,0.42,0.511
-32.918,-1.353,18.702,-2.258,2.262,-2.379
-39.54,6.448,28.456,-3.322,3.808,-4.928
-36.535,14.775,33.628,-4.242,4.57,-6.881
-30.329,23.532,30.973,-4.436,3.425,-7.737
-23.159,27.762,23.592,-3.433,1.756,-6.857
-15.977,26.437,13.302,-1.629,-0.24,-4.824
-7.747,17.599,3.095,0.001,-1.228,-2.514
-6.159,9.734,-1.783,1.602,-0.933,0.206
-8.687,2.931,0.763,2.794,-0.4,2.574
-12.952,-2.189,5.623,3.419,0.245,3.715
-14.227,-4.748,7.542,3.568,0.628,3.791
-13.825,-5.803,8.762,3.64,0.95,3.544
-12.443,-6.275,9.997,3.521,0.682,3.034
-9.339,-5.509,10.718,3.263,0.452,2.728
-5.297,-3.099,10.454,2.878,-0.106,3.028
-3.985,0.179,10.65,2.503,-1.011,3.747
-5.89,3.354,10.825,2.197,-1.44,4.545
-8.332,5.678,9.771,1.841,-2.062,4.797
-11.681,6.16,9.205,1.396,-1.988,4.503
-15.901,6.109,8.269,0.805,-1.378,3.283
-18.587,3.84,8.287,0.179,-0.115,1.661
-22.249,1.533,12.514,-0.87,1.069,-0.608
-27.797,1.548,20.954,-2.325,2.978,-3.07
-32.696,10.063,30.765,-3.755,3.795,-5.325
-31.351,16.922,35.73,-5.046,3.746,-6.949
-27.668,22.552,33.671,-5.763,2.924,-7.68
-19.824,27.466,24.209,-5.15,1.312,-6.989
-14.379,26.407,15.054,-3.049,-0.466,-5.261
-7.412,16.691,4.135,-1.112,-1.102,-3.246
-5.633,9.03,-1.204,0.941,-1.114,-0.767
-6.986,3.109,0.426,2.537,-0.443,1.567
-11.603,-2.747,5.437,3.24,0.218,2.716
-10.989,-5.304,6.172,3.018,0.871,3.068
-11.379,-6.312,6.66,3.04,1.098,2.984
-11.858,-7.134,7.279,2.881,1.525,2.382
-10.302,-6.707,7.279,2.541,1.772,1.648
-6.695,-5.11,7.305,2.199,1.719,1.596
-5.288,-2.584,7.218,1.98,1.026,2.134
-5.653,0.454,7.757,1.879,0.371,3.058
-6.506,3.646,8.494,1.821,-0.606,4.079
-9.275,6.233,9.185,1.849,-2.007,4.763
-13.844,6.339,9.393,1.732,-2.134,4.966
-20.362,3.42,9.941,1.338,-2.308,4.34
-29.238,-1.889,13.05,0.17,-0.861,2.356
-38.496,-2.165,23.994,-1.661,1.397,-0.543
-46.697,6.436,35.634,-3.461,3.295,-3.303
-43.53,17.857,40.854,-4.982,3.961,-5.884
-33.472,27.915,38.183,-5.393,4.218,-7.063
-23.841,35.009,32.253,-4.233,2.563,-6.456
-14.534,32.58,19.818,-2.115,0.572,-4.563
-4.486,20.789,6.161,-0.273,-0.418,-2.672
-4.564,7.266,-0.461,1.585,-0.711,-0.597
-8.788,-3.045,1.001,2.516,-0.203,0.61
-9.056,-8.391,2.475,2.445,0.615,1.118
-7.81,-9.759,2.344,2.056,1.111,1.175
-7.39,-9.987,3.123,1.874,1.53,1.316
-6.917,-9.554,3.67,1.645,1.497,1.245
-6.131,-8.414,4.451,1.52,1.447,1.27
-5.49,-7.189,5.446,1.528,1.227,1.479
-4.504,-5.485,6.511,1.587,1.023,2.075
-3.943,-3.314,7.144,1.637,0.289,2.986
-5.063,0.106,7.745,1.575,-0.475,4.02
-7.193,3.313,8.293,1.417,-1.008,5.014
-10.812,5.104,9.414,1.377,-2.12,5.433
-16.308,3.646,10.441,1.104,-2.366,4.917
-21.77,-1.401,12.123,0.524,-1.664,3.511
-27.212,-5.54,17.975,-0.867,0.332,1.409
-33.637,-4.948,29.945,-2.776,2.43,-1.631
-38.507,5.11,40.063,-4.672,4.477,-4.245
-32.414,18.444,42.671,-5.819,4.945,-6.166
-24.711,29.413,37.651,-5.656,4.018,-6.631
-18.274,34.368,29.003,-3.875,2.312,-5.683
-11.058,31.129,16.254,-1.319,0.513,-3.356
-4.257,18.542,5.379,0.84,-0.245,-1.055
-6.635,4.043,1.655,2.431,-0.512,0.997
-10.627,-5.341,4.219,2.99,0.248,1.828
-10.496,-10.214,5.252,2.671,0.566,1.71
-9.658,-11.298,4.412,2.032,0.952,1.179
-8.325,-11.017,3.239,1.644,0.99,0.695
-7.801,-9.324,2.968,1.383,1.232,0.429
-6.225,-7.754,3.51,1.219,1.116,0.548
-5.569,-6.377,4.89,1.218,0.96,0.973
-4.184,-4.507,5.53,1.315,0.747,1.72
-3.184,-2.01,6.209,1.443,0.3,2.878
-3.766,1.558,7.167,1.57,-0.562,4.044
-6.011,4.904,8.072,1.786,-1.137,5.157
-9.741,7.477,9.596,1.937,-2.06,5.565
-14.975,6.557,12.291,1.745,-2.169,5.281
-21.263,2.557,13.772,1.146,-2.007,3.806
-26.478,-1.563,17.657,-0.284,-0.35,1.44
-32.67,-0.325,27.824,-2.472,1.742,-1.694
-36.175,8.051,35.525,-4.462,3.44,-4.293
-31.675,18.458,36.693,-5.861,3.909,-6.463
-23.129,26.765,33.361,-5.886,3.613,-6.932
-16.91,31.223,27.1,-4.466,1.934,-6.026
-10.364,27.524,15.077,-2.14,0.042,-4.128
-4.116,16.155,5.211,-0.184,-0.505,-2.187
-5.014,4.55,1.231,1.578,-0.627,-0.06
-9.129,-3.361,2.688,2.19,-0.249,1.035
-9.887,-8.313,3.475,2.017,0.578,1.426
-8.67,-9.647,3.114,1.62,1.003,1.462
-8.086,-9.526,3.091,1.502,1.318,1.542
-7.526,-8.127,3.704,1.475,1.314,1.434
-6.344,-6.782,4.593,1.666,1.431,1.463
-5.009,-4.807,5.559,1.959,1.198,1.821
-4.149,-3.27,6.955,2.21,0.98,2.663
-4.76,-1.27,8.03,2.128,0.253,3.635
-6.012,1.929,8.23,1.762,-0.272,4.605
-7.72,5.511,8.692,1.351,-0.787,5.393
-11.541,7.643,9.59,1.135,-1.512,5.483
-14.765,7.167,9.974,0.781,-1.258,4.79
-18.357,4.685,9.965,0.364,-0.902,3.354
-22.021,0.838,11.681,-0.393,0.108,1.26
-26.723,-1.306,16.995,-1.594,1.863,-1.431
-31.002,1.131,25.166,-3.173,3.776,-3.87
-32.866,9.655,30.532,-4.675,4.246,-5.953
-26.829,19.208,30.754,-5.119,4.546,-6.832
-19.723,24.826,27.147,-4.482,3.257,-6.503
-14.421,27.036,19.53,-3.055,1.388,-4.885
-7.71,23.048,9.669,-1.292,0.125,-2.73
-4.388,13.931,3.382,0.594,-0.675,-0.565
-7.421,3.326,2.904,1.766,-1.013,0.84
-10.813,-3.239,4.185,2.219,-0.625,1.257
-10.199,-8.137,4.809,2.301,0.054,1.079
-9.458,-10.257,4.336,2.182,0.306,0.654
-7.577,-10.236,3.238,2.06,0.832,0.491
-6.681,-9.138,3.863,2.059,1.266,0.571
-4.771,-7.776,4.826,1.998,1.37,1.014
-4.245,-5.609,5.674,2.145,0.941,1.662
-3.243,-3.705,6.938,2.465,0.725,2.638
-4.1,-1.503,8.587,2.662,-0.141,3.552
-5.019,1.942,8.419,2.639,-0.802,4.519
-8.124,4.499,9.357,2.625,-1.631,5.191
-14.216,4.623,11.551,2.193,-1.401,5.251
-18.729,2.99,12.755,1.23,-0.781,4.106
-21.817,0.545,15.269,-0.029,0.484,2.083
-24.991,-0.295,22.017,-1.663,1.764,-0.713
-28.048,2.567,29.91,-3.582,3.297,-3.559
-25.62,11.887,34.454,-5.408,3.986,-5.737
-20.459,22.019,33.439,-6.102,3.511,-6.811
-16.342,28.273,27.818,-5.516,2.484,-6.599
-11.619,28.829,18.284,-3.912,1.338,-5.239
-6.093,23.566,7.826,-1.712,0.717,-3.183
-3.606,13.131,1.042,0.637,0.122,-1.218
-6.063,1.966,1.408,2.238,0.329,0.504
-7.472,-5.24,3.996,2.75,0.597,1.364
-8.2,-8.767,4.802,2.66,0.882,1.574
-8.347,-9.598,5.017,2.421,1.11,1.457
-7.404,-9.84,4.82,2.169,1.338,1.278
-6.452,-8.716,4.485,1.949,1.229,1.091
-5.07,-7.493,4.807,1.854,1.004,1.202
-4.553,-5.589,5.615,1.857,0.793,1.628
-3.588,-3.2,6.198,1.823,0.508,2.55
-4.635,0.737,6.96,1.725,-0.183,3.511
-6.636,4.429,7.538,1.696,-0.875,4.493
-10.352,6.678,9.349,1.545,-1.101,5.241
-15.54,6.129,10.814,1.164,-1.667,5.146
-20.793,2.663,11.72,0.555,-1.471,3.902
-25.947,-1.737,14.989,-0.556,-0.159,1.858
-30.804,-2.009,24.334,-2.369,2.121,-1.144
-35.439,5.06,32.444,-3.997,3.321,-3.97
-31.611,15.164,36.823,-5.377,4.451,-6.203
-23.493,25.153,35.332,-5.691,4.098,-6.859
-16.835,30.953,29.126,-4.646,2.55,-6.191
-10.778,29.411,17.386,-2.474,0.564,-4.007
-4.67,19.896,7.075,-0.355,-0.264,-1.79
-5.382,8.155,1.983,1.682,-0.432,0.472
-10.248,-1.423,2.043,2.731,-0.546,1.401
-11.491,-7.432,3.85,2.901,0.317,1.582
-10.983,-9.326,4.209,2.471,0.694,1.143
-9.232,-8.354,3.233,2.146,1.026,0.822
-7.169,-6.943,3.698,1.95,0.788,0.66
-5.756,-5.231,4.468,1.824,0.848,0.856
-5.196,-3.727,5.18,1.913,0.647,1.417
-4.634,-2.431,6.949,2.04,0.305,2.19
-5.775,-1.801,8.534,2.123,-0.351,2.866
-6.66,-0.198,8.075,1.918,-0.499,3.498
-7.419,2.127,8.142,1.731,-0.692,4.027
-8.508,4.332,7.919,1.495,-1.147,4.16
-10.255,5.629,8.426,1.286,-1.243,3.956
-12.335,6.152,7.246,1.03,-1.003,3.242
-11.908,5.1,8.184,0.596,-0.389,2.571
-15.41,2.89,8.306,0.209,-0.106,1.726
-20.491,-0.484,11.359,-0.511,0.947,0.177
-25.969,-0.312,19.501,-1.998,2.754,-2.139
-30.207,6.85,30.453,-3.641,3.74,-3.994
-32.931,17.465,35.584,-5.073,3.87,-6.055
-25.257,26.78,34.563,-5.653,4.183,-7.109
-16.105,32.588,28.157,-4.973,3.214,-6.484
-9.607,33.401,17.713,-3.003,1.213,-4.352
-4.038,25.35,7.752,-0.718,0.151,-1.979
-1.805,15.086,1.596,1.629,-0.696,0.516
-7.06,6.281,4.151,3.277,-1.147,2.474
-11.877,1.408,9.305,3.882,-1.355,3.372
-12.878,-1.049,11.924,4.035,-1.146,3.531
-12.114,-1.097,13.247,4.032,-1.389,3.453
-12.488,-0.862,14.817,4.071,-1.397,3.245
-11.233,-0.52,14.466,3.966,-1.503,2.747
-9.581,0.649,13.764,3.765,-1.116,2.559
-8.339,1.408,13.181,3.203,-0.925,2.601
-8.397,1.918,11.725,2.425,-0.759,2.52
-10.218,1.549,9.606,1.52,-0.742,1.972
-13.793,0.585,9.082,0.496,0.442,1.019
-17.921,0.548,10.191,-0.617,1.975,-0.72
-21.468,0.713,13.083,-1.699,3.087,-3.052
-24.291,2.358,17.629,-2.803,3.966,-5.266
-23.718,5.043,20.624,-3.78,3.967,-7.005
-19.603,8.69,20.418,-4.254,2.678,-7.749
-15.788,9.058,16.804,-4.092,0.501,-7.338
-12.704,9.549,11.762,-3.155,-1.148,-6.014
-9.506,6.432,5.804,-1.87,-2.16,-4.411
-7.948,3.765,1.466,-0.445,-2.274,-2.576
-8.989,-0.239,-0.736,0.691,-1.659,-0.915
-9.37,-1.825,-0.216,1.406,-0.578,0.444
-9.26,-3.049,0.583,1.691,0.495,1.608
-8.939,-1.413,2.442,2.063,1.432,2.879
-7.765,0.247,5.554,2.419,1.753,4.371
-8.866,4.263,9.179,2.945,1.023,5.638
-11.93,7.263,13.034,3.583,-0.469,6.512
-16.357,7.132,16.16,3.857,-1.17,6.843
-19.471,4.242,16.866,3.434,-2.91,5.952
-23.979,-0.68,15.6,2.353,-3.596,4.269
-27.582,-5.979,15.048,0.675,-2.626,2.101
-30.323,-8.504,20.604,-1.649,-0.277,-0.815
-32.923,-3.213,30.43,-4.088,1.018,-3.635
-35.639,8.937,36.474,-6.012,2.72,-5.617
-29.278,22.042,36.36,-6.594,3.637,-6.596
-21.355,28.921,31.565,-5.626,2.921,-6.531
-15.1,30.723,21.836,-3.56,1.506,-4.768
-8.798,23.797,9.27,-1.142,0.499,-2.61
-3.233,11.873,2.121,1.096,0.159,-0.433
-6.071,-0.448,1.636,2.544,-0.144,1.079
-9.355,-7.156,4.085,2.798,0.325,1.911
-9.557,-10.655,4.252,2.537,0.902,2.104
-8.863,-10.344,4.222,2.261,1.386,2.201
-7.876,-10.096,4.338,2.175,1.594,2.35
-6.72,-8.224,5.047,2.121,1.587,2.518
-4.786,-6.294,5.858,2.168,1.203,2.846
-3.227,-3.998,6.913,2.16,0.529,3.455
-2.74,-0.911,7.451,2.041,-0.829,4.161
-6.151,2.895,8.17,2.037,-2.144,4.711
-11.202,3.864,8.706,1.81,-2.607,4.911
-15.964,3.235,10.327,1.185,-2.587,4.503
-21.821,1.291,12.883,0.247,-1.526,3.148
-26.131,-0.772,19.151,-1.049,0.951,0.913
-29.959,1.025,28.14,-2.922,3.378,-1.963
-30.748,11.334,35.891,-4.467,4.773,-4.507
-26.283,21.326,36.327,-5.375,5.001,-6.524
-19.574,28.865,30.548,-5.051,4.009,-6.998
-14.471,31.582,21.112,-3.484,2.262,-5.945
-8.4,26.387,10.992,-1.19,0.695,-3.658
-4.552,13.827,2.897,0.598,-0.281,-1.572
-5.919,2.524,0.213,2.12,-0.256,0.515
-7.985,-4.804,2.857,2.853,0.218,1.691
-8.782,-8.527,5.818,2.949,0.666,2.183
-7.695,-7.808,6.506,2.668,0.967,2.416
-5.804,-5.675,6.585,2.83,1.177,3.089
-4.533,-2.697,7.81,2.98,0.804,3.975
-6.111,0.215,9.774,3.121,-0.12,4.675
-7.539,2.103,11.083,2.91,-0.857,5.249
-10.783,3.599,11.23,2.502,-1.523,5.229
-13.832,3.376,10.953,1.625,-1.85,4.713
-17.772,2.665,9.281,0.705,-1.405,3.42
-20.182,0.72,9.15,-0.212,-0.165,1.814
-25.036,-0.378,13.891,-1.291,1.553,-0.565
-29.821,1.756,23.753,-2.66,3.208,-3.065
-33.996,11.106,34.389,-4.027,3.651,-5.308
-31.213,20.526,38.048,-5.263,3.463,-6.976
-24.698,27.792,32.953,-5.169,2.652,-7.121
-18.892,30.925,24.827,-3.903,0.894,-5.944
-12.75,27.011,13.583,-2.107,-0.305,-3.817
-6.958,16.319,1.981,-0.026,-0.322,-1.752
-7.591,4.734,-1.049,2.031,-0.02,0.286
-10.992,-4.351,3.115,2.551,0.778,1.212
-10.562,-9.003,4.86,2.137,1.694,1.62
-8.347,-9.993,5.091,1.72,1.928,1.556
-6.475,-9.738,4.9,1.658,1.782,1.71
-6.151,-9.362,4.689,1.568,1.56,1.645
-4.954,-8.683,3.909,1.659,1.241,1.493
-4.27,-7.589,3.795,1.818,0.875,1.448
-4.175,-5.947,3.642,1.969,0.4,1.748
-4.692,-3.763,3.69,1.935,0.176,2.387
-4.274,-0.307,4.116,1.919,-0.236,3.492
-6.912,2.361,5.904,1.836,-1.063,4.675
-12.31,2.039,9.027,1.725,-1.872,5.289
-19.22,-2.324,12.873,0.918,-1.568,4.695
-25.81,-5.929,19.482,-0.745,0.166,2.675
-34.37,-4.615,31.221,-2.926,2.03,-0.458
-39.532,3.686,38.869,-4.824,3.391,-3.52
-35.797,14.662,39.069,-6.202,4.396,-6.122
-27.345,25.327,33.543,-5.825,3.975,-7.021
-20.695,30.301,25.806,-4.025,1.908,-6.324
-12.036,25.937,13.192,-1.6,0.141,-4.309
-4.282,15.087,3.702,0.344,-0.488,-2.201
-3.726,3.617,0.168,1.976,-0.69,-0.05
-6.613,-4.721,1.875,2.589,-0.166,1.207
-7.453,-9.513,3.329,2.514,0.57,1.822
-7.942,-9.672,3.066,2.235,1.034,1.838
-8.234,-9.655,3.929,2.309,1.633,1.783
-7.176,-8.866,4.914,2.221,1.859,1.693
-6.069,-7.305,5.805,2.173,1.826,1.826
-4.407,-5.124,6.307,2.174,1.676,2.389
-2.692,-2.61,7.459,2.079,1.293,3.474
-3.417,2.278,8.746,1.782,-0.418,4.546
-8.208,5.594,9.197,1.917,-1.233,5.337
-10.65,6.896,10.587,1.709,-1.928,5.726
-17.135,6.262,11.631,1.327,-2.96,5.025
-24.175,1.183,13.267,0.657,-1.988,3.459
-30.344,-3.706,17.447,-0.606,0.596,0.917
-34.628,-0.855,30.038,-2.685,2.611,-1.956
-39.232,10.149,39.892,-4.623,3.79,-4.604
-33.401,21.813,42.479,-6.108,4.867,-6.411
-25.061,32.283,36.795,-5.954,3.608,-6.93
-17.843,35.978,28.84,-4.285,1.66,-5.784
-10.396,28.798,15.254,-1.97,0.06,-3.832
-4.413,16.091,3.214,0.146,-0.606,-1.936
-5.467,3.067,-1.327,2.119,-0.634,-0.072
-7.99,-5.394,2.213,2.796,0.064,0.982
-8.368,-9.506,3.515,2.506,0.763,1.352
-7.356,-8.239,2.65,2.085,1.032,1.452
-6.993,-7.935,3.116,2.166,1.421,1.649
-5.742,-6.185,4.421,2.147,1.493,1.906
-4.514,-4.282,5.063,2.284,1.32,2.473
-4.251,-1.59,6.452,2.518,0.736,3.281
-5.412,0.784,8.559,2.65,0.248,4.211
-7.51,3.446,9.249,2.642,-0.873,4.846
-10.317,4.739,10.019,2.286,-1.221,5.221
-13.372,5.385,10.028,1.71,-1.901,4.919
-16.141,4.413,9.518,1.076,-1.829,4.109
-19.429,1.324,9.336,0.416,-1.099,2.689
-22.719,-2.234,13.763,-0.763,0.65,0.689
-29.076,-0.344,23.392,-2.39,2.264,-2.01
-34.494,7.334,32.862,-3.82,3.391,-4.361
-32.952,17.885,37.817,-5.354,3.636,-6.458
-27.626,26.606,35.379,-5.866,2.727,-7.262
-22.58,31.218,27.319,-4.946,1.432,-6.599
-14.214,27.437,15.05,-2.84,-0.008,-4.773
-6.52,17.433,4.391,-1.05,-0.464,-2.865
-5.599,4.804,-0.918,0.934,-0.03,-0.7
-6.283,-4.487,-0.018,1.799,0.734,0.712
-6.088,-8.595,1.877,1.856,1.26,1.492
-6.422,-8.169,2.877,1.66,1.569,1.946
-6.488,-6.855,4.07,1.812,1.821,2.384
-5.745,-4.494,4.792,2.02,1.66,2.784
-5.117,-2.171,6.0,2.424,1.602,3.587
-5.419,0.154,8.214,2.601,0.771,4.471
-7.788,2.012,9.453,2.639,-0.062,5.156
-8.933,4.053,10.097,2.389,-0.911,5.658
-11.941,5.974,10.321,2.073,-2.081,5.635
-14.722,6.455,10.837,1.543,-3.375,4.869
-17.799,4.951,10.017,1.03,-2.689,3.789
-19.936,0.922,10.946,0.338,-1.786,2.264
-25.947,-1.861,16.821,-0.934,-0.187,-0.137
-30.488,1.926,30.523,-2.964,2.019,-2.679
-35.815,12.849,41.351,-4.784,3.472,-4.886
-32.79,24.023,46.351,-6.463,3.71,-6.71
-25.141,34.021,40.781,-6.751,2.679,-7.317
-17.693,37.417,31.212,-5.317,1.215,-6.307
-11.741,30.536,16.743,-2.801,-0.352,-4.612
-4.914,17.886,3.898,-0.623,-0.707,-2.899
-4.429,5.047,-1.963,1.651,-0.733,-0.993
-8.357,-4.407,1.532,2.531,0.113,0.267
-8.781,-8.583,3.787,2.33,1.048,0.955
-7.54,-8.432,3.265,1.897,1.509,1.437
-7.249,-8.47,4.408,1.888,2.081,2.002
-6.65,-7.313,5.44,1.795,1.819,2.172
-5.337,-5.643,6.144,1.957,1.703,2.475
-4.704,-3.819,6.946,2.278,1.129,2.942
-4.743,-2.415,7.964,2.57,0.546,3.542
-6.049,0.004,8.288,2.797,-0.503,3.967
-7.68,2.41,8.248,2.896,-0.783,4.547
-9.293,4.343,8.803,2.779,-1.432,4.854
-12.922,5.048,9.212,2.423,-1.979,4.671
-16.892,2.652,10.197,1.646,-1.365,4.026
-21.221,-2.237,12.137,0.334,-0.385,2.625
-26.256,-4.683,18.609,-1.488,1.181,0.199
-34.615,-0.87,29.724,-3.615,2.998,-2.504
-37.705,8.929,38.683,-5.196,3.993,-4.933
-34.377,21.089,39.744,-6.353,3.492,-7.025
-26.889,29.995,33.77,-5.844,2.535,-7.302
-19.755,31.5,25.028,-3.983,1.027,-5.829
-10.885,24.091,12.792,-1.877,-0.525,-3.862
-5.021,12.216,2.71,-0.098,-0.932,-1.805
-4.658,0.074,-0.948,1.541,-0.453,0.437
-7.296,-7.429,2.012,2.024,0.315,1.668
-8.116,-9.607,2.457,1.651,0.801,1.945
-8.3,-8.444,1.873,1.755,1.501,1.998
-7.637,-8.107,2.702,1.838,2.097,2.003
-7.162,-6.869,4.584,1.992,2.013,1.815
-5.242,-5.228,5.295,2.104,1.89,1.982
-4.275,-3.43,6.84,2.366,1.477,2.597
-2.558,-1.238,7.898,2.328,0.542,3.687
-3.589,3.642,9.315,2.184,-0.686,4.928
-6.645,7.543,10.12,2.308,-1.756,5.773
-10.014,9.614,12.3,2.094,-2.772,6.085
-17.539,8.311,13.46,1.763,-2.968,5.433
-23.194,4.113,15.095,0.966,-2.02,3.58
-29.655,-0.478,19.383,-0.473,-0.064,0.58
-34.806,2.046,31.003,-2.784,2.152,-2.359
-38.173,10.626,40.021,-4.687,3.272,-5.093
-33.353,20.027,43.12,-6.564,3.483,-7.187
-27.723,28.53,39.282,-7.116,2.656,-7.743
-18.569,32.699,30.188,-6.054,1.044,-6.396
-11.011,24.722,16.414,-3.849,-0.715,-4.225
-4.949,15.213,3.702,-1.792,-1.299,-2.14
-3.835,6.906,-2.091,0.687,-1.09,0.553
-5.113,1.605,0.234,2.331,-0.879,2.703
-9.519,-1.424,4.683,3.1,-0.648,3.814
-10.819,0.749,6.581,3.179,-0.239,4.274
-12.733,0.151,8.519,3.278,0.34,4.631
-12.777,0.101,9.694,3.026,0.275,4.153
-13.015,0.046,8.796,2.882,0.301,3.303
