ax,ay,az,gx,gy,gz
-1.065,-7.534,-5.543,-0.073,0.012,0.093
-1.036,-7.518,-5.503,-0.085,-0.026,0.107
-1.108,-7.492,-5.502,-0.101,-0.108,0.121
-1.378,-7.451,-5.591,-0.121,-0.179,0.126
-1.587,-7.425,-5.69,-0.144,-0.198,0.114
-1.84,-7.403,-5.808,-0.164,-0.222,0.076
-1.966,-7.346,-5.876,-0.175,-0.218,0.021
-1.965,-7.265,-5.906,-0.178,-0.191,-0.038
-1.86,-7.129,-5.823,-0.168,-0.179,-0.081
-1.594,-6.933,-5.573,-0.16,-0.234,-0.073
-1.41,-6.751,-5.248,-0.173,-0.349,-0.011
-1.301,-6.742,-4.761,-0.206,-0.495,0.104
-1.209,-6.45,-4.234,-0.231,-0.706,0.286
-1.383,-6.169,-3.404,-0.228,-0.984,0.542
-1.683,-5.48,-2.416,-0.262,-1.354,0.912
-2.025,-4.358,-1.62,-0.417,-1.866,1.479
-3.109,-1.776,-1.467,-0.702,-2.13,2.393
-5.076,-0.752,-1.339,-0.995,-2.222,3.516
-10.232,-2.222,-1.338,-1.414,-2.592,4.288
-17.847,-7.413,-0.372,-2.384,-2.075,3.671
-26.173,-9.688,3.538,-3.45,-0.743,1.384
-35.729,-9.403,8.986,-4.068,0.294,-1.372
-40.724,-2.004,13.446,-4.522,1.156,-4.397
-34.591,7.235,14.089,-4.187,1.498,-6.37
-26.546,16.387,12.569,-2.951,1.498,-5.575
-21.434,18.515,9.049,-1.293,0.194,-2.763
-14.163,15.382,4.22,0.021,-0.192,-0.382
-9.033,6.013,0.673,1.282,-0.575,1.898
-11.776,-2.464,0.565,1.877,-0.063,3.309
-12.814,-7.688,1.763,2.112,0.339,3.282
-10.57,-8.768,1.751,2.133,1.215,2.831
-8.851,-8.246,2.445,2.227,1.243,2.926
-7.801,-7.507,2.755,2.157,0.902,3.153
-7.179,-5.916,3.065,1.961,0.374,3.626
-8.498,-3.773,2.08,1.84,-0.17,4.086
-9.402,-2.918,1.95,1.705,-0.355,4.273
-11.791,-3.412,1.654,1.391,-0.87,4.068
-16.496,-6.44,3.861,0.754,-0.64,3.177
-22.446,-9.737,8.315,-0.578,-0.217,1.085
-29.787,-8.846,16.398,-2.598,0.047,-1.662
-38.523,-3.342,24.567,-4.618,0.11,-4.284
-38.119,6.26,25.884,-5.964,0.385,-6.556
-32.092,16.796,21.289,-5.847,0.393,-6.781
-25.336,22.686,15.265,-4.285,0.133,-5.023
-19.91,20.006,7.881,-1.935,-0.033,-2.452
-11.135,12.812,0.547,0.331,0.372,-0.209
-9.426,2.507,-0.256,2.02,0.772,2.011
-11.296,-5.784,2.045,2.546,1.248,2.818
-11.526,-10.493,4.142,2.321,2.068,2.854
-8.35,-11.186,4.59,1.865,2.563,2.818
-6.698,-11.359,4.524,1.478,2.416,3.073
-5.556,-11.0,3.825,1.193,1.815,3.148
-5.95,-10.746,3.147,0.972,1.045,2.941
-6.037,-9.084,1.234,0.661,0.389,2.607
-4.638,-5.998,-0.018,0.32,0.107,2.573
-4.095,-2.902,-1.637,0.153,-0.449,2.957
-7.155,-2.439,-1.365,0.082,-0.725,3.688
-17.37,-5.579,3.27,-0.656,-0.69,3.443
-27.527,-6.347,9.978,-2.023,0.077,1.407
-40.06,-0.05,17.868,-3.482,0.166,-1.095
-45.749,6.541,22.927,-4.506,1.125,-3.977
-41.87,14.221,22.225,-4.921,1.442,-6.446
-29.662,23.447,16.698,-4.043,1.582,-6.346
-20.145,25.596,10.556,-1.997,0.403,-3.848
-11.214,15.504,3.754,0.143,0.208,-1.554
-7.417,6.178,-0.283,1.748,-0.562,0.513
-8.557,-2.377,0.107,2.507,-0.02,2.048
-10.063,-8.789,1.233,2.534,0.479,2.47
-9.215,-11.873,2.029,1.986,1.497,2.441
-7.449,-10.534,2.178,1.557,1.836,2.653
-6.399,-10.4,2.551,1.212,2.059,3.036
-6.276,-9.392,3.316,1.061,1.453,3.235
-5.871,-7.541,3.61,1.004,0.762,3.297
-5.98,-4.804,3.148,1.086,0.141,3.509
-6.705,-3.113,2.016,1.127,-0.478,3.772
-9.692,-2.761,2.098,0.961,-1.22,3.878
-17.109,-6.911,5.19,0.253,-1.226,3.448
-24.042,-10.718,11.356,-1.484,-0.415,1.322
-34.498,-8.214,20.382,-3.437,0.016,-1.36
-39.929,0.343,26.447,-5.153,0.792,-4.129
-36.743,8.315,24.839,-5.418,1.009,-6.142
-29.143,17.991,19.426,-4.674,1.241,-6.129
-22.781,22.006,12.872,-2.626,0.748,-3.646
-14.659,17.427,4.627,-0.461,0.497,-1.193
-9.887,6.613,-0.081,1.58,0.083,1.06
-10.97,-1.944,1.557,2.254,0.794,2.677
-11.506,-8.536,3.82,2.33,1.325,2.946
-10.634,-10.461,4.527,1.994,1.82,2.585
-8.064,-10.276,4.04,1.787,2.276,2.639
-6.842,-10.124,3.788,1.531,2.2,2.803
-6.31,-9.625,3.529,1.345,1.624,2.812
-6.003,-8.249,2.68,1.088,0.769,2.731
-6.023,-6.442,1.535,0.845,0.214,2.707
-6.175,-4.56,0.511,0.633,-0.459,2.782
-7.467,-2.847,-0.619,0.52,-0.61,3.02
-12.273,-5.516,0.556,0.261,-0.27,3.234
-20.039,-11.83,5.389,-0.697,0.07,1.741
-30.25,-11.939,13.581,-2.466,0.067,-0.56
-40.4,-5.19,22.15,-4.164,0.824,-3.142
-40.384,2.264,23.915,-5.001,0.717,-5.797
-35.23,11.8,19.962,-4.901,0.402,-6.822
-27.049,20.818,14.176,-3.629,0.458,-5.083
-19.613,18.798,6.864,-1.458,0.446,-2.714
-10.018,9.857,-0.51,0.537,0.047,-0.575
-8.328,0.552,-1.88,1.633,0.488,1.556
-8.277,-6.748,0.477,1.922,0.95,2.479
-8.89,-9.881,1.513,1.769,1.435,2.674
-6.606,-9.028,1.478,1.595,2.106,2.885
-6.404,-9.121,1.818,1.531,2.06,3.274
-6.861,-8.335,2.437,1.536,1.876,3.54
-7.667,-7.962,2.866,1.517,1.278,3.414
-8.013,-7.522,2.739,1.403,0.593,2.97
-7.517,-6.404,2.213,1.102,0.054,2.723
-6.773,-4.051,1.395,0.694,-0.286,2.842
-6.502,-2.933,0.764,0.167,-0.704,3.276
-9.97,-3.039,0.695,-0.495,-0.796,3.952
-19.3,-6.454,3.638,-1.473,-0.856,3.347
-28.128,-7.08,10.345,-2.685,0.254,1.014
-38.312,-2.993,18.616,-3.79,1.156,-1.633
-40.972,5.086,23.123,-4.374,2.088,-4.463
-35.112,12.145,21.559,-4.181,2.117,-6.353
-25.112,19.892,17.089,-3.165,2.134,-5.664
-19.153,20.662,10.133,-1.498,0.698,-3.157
-11.091,14.463,2.22,0.082,0.122,-0.888
-9.53,4.468,-2.08,1.172,-0.275,1.254
-11.949,-3.226,-0.957,1.623,0.399,2.385
-11.91,-8.674,0.682,1.621,1.131,2.399
-8.963,-10.328,1.161,1.383,1.862,2.285
-6.937,-9.831,1.453,1.26,2.056,2.548
-5.73,-8.618,1.646,1.15,1.839,2.827
-4.904,-7.014,2.156,1.168,1.41,3.103
-4.551,-4.975,2.336,1.22,0.775,3.397
-4.885,-2.738,2.561,1.135,0.095,3.734
-6.61,-0.737,1.829,0.876,-0.701,3.977
-8.912,0.546,1.399,0.579,-1.047,4.238
-13.352,-0.216,1.574,0.006,-1.334,4.259
-21.266,-5.765,3.36,-0.938,-1.293,3.181
-30.067,-8.292,8.906,-2.349,-0.43,0.449
-39.129,-4.014,18.642,-3.622,1.278,-2.326
-42.689,4.146,23.643,-4.578,2.194,-5.008
-36.653,12.163,21.984,-4.526,2.4,-6.908
-27.605,21.782,18.465,-3.6,2.416,-6.252
-20.27,24.422,12.172,-1.698,1.186,-3.552
-12.948,17.549,3.204,0.065,0.067,-1.266
-7.796,6.687,-1.462,1.494,-0.329,0.907
-9.988,-2.291,0.199,2.056,0.199,2.508
-11.573,-8.584,2.175,2.064,0.583,2.596
-10.177,-11.115,2.875,1.654,1.689,2.152
-6.428,-11.03,2.681,1.323,2.138,2.247
-5.475,-10.138,2.69,1.002,2.08,2.478
-5.386,-9.128,2.116,0.885,1.752,2.577
-5.381,-8.096,1.876,0.88,1.243,2.467
-4.765,-6.517,1.639,0.808,0.551,2.386
-4.473,-4.099,1.131,0.652,-0.146,2.659
-4.885,-1.402,1.079,0.452,-0.63,3.2
-7.598,0.718,0.869,0.144,-0.931,3.958
-13.984,-0.54,2.25,-0.217,-1.331,4.385
-23.521,-5.514,5.702,-1.069,-0.955,3.127
-33.988,-5.381,13.832,-2.426,-0.009,0.473
-43.828,3.392,22.026,-3.869,1.256,-2.472
-41.092,11.848,24.543,-4.581,1.974,-5.4
-32.236,19.056,20.872,-4.354,2.189,-6.514
-23.818,26.381,16.29,-3.168,1.802,-5.205
-16.164,24.527,7.907,-1.446,1.176,-2.796
-6.376,13.23,-0.257,0.337,0.334,-0.41
-7.565,2.741,-2.322,1.435,-0.288,1.85
-11.336,-4.281,0.401,1.761,0.126,2.577
-10.569,-8.394,1.864,1.706,0.627,2.408
-7.975,-8.861,1.471,1.786,1.042,2.295
-7.296,-8.579,2.649,1.924,1.371,2.592
-6.075,-8.44,3.195,1.758,1.51,2.777
-4.835,-6.334,3.128,1.584,1.241,3.232
-5.401,-3.745,3.239,1.455,0.727,3.809
-7.815,-1.627,4.26,1.32,-0.498,4.103
-9.752,-0.708,3.179,1.193,-1.235,3.969
-12.545,-0.186,3.844,1.162,-1.555,3.943
-18.265,-4.092,6.347,0.697,-1.427,3.327
-24.304,-8.109,10.858,-0.657,-0.773,1.372
-30.498,-7.191,19.526,-2.631,0.577,-1.219
-37.039,-0.573,27.524,-4.617,1.548,-3.768
-34.698,7.686,27.853,-5.869,2.136,-6.006
-28.02,17.001,23.618,-5.677,1.91,-6.481
-22.44,22.926,17.948,-4.074,1.23,-5.013
-16.422,20.628,9.32,-1.713,0.409,-2.666
-9.431,12.278,2.055,0.531,-0.108,-0.369
-9.828,1.843,1.021,2.105,-0.108,1.546
-10.565,-5.844,2.399,2.444,0.294,2.199
-9.5,-9.534,2.809,2.33,0.904,2.316
-7.596,-9.842,2.792,2.053,1.127,2.606
-7.513,-8.728,2.314,1.917,1.328,2.812
-6.867,-7.339,2.613,1.788,1.236,3.169
-7.511,-5.956,3.056,1.75,1.01,3.402
-8.314,-5.208,3.449,1.599,0.436,3.425
-8.833,-4.678,2.896,1.341,0.13,3.113
-8.868,-4.765,2.199,1.02,-0.28,2.957
-10.168,-5.018,1.753,0.539,-0.338,2.817
-14.761,-7.865,4.068,-0.144,-0.59,2.249
-20.962,-10.55,9.039,-1.517,-0.521,0.28
-29.137,-8.393,17.114,-3.342,-0.134,-2.045
-33.109,0.073,22.113,-5.091,0.537,-4.391
-28.941,7.972,21.235,-5.442,0.357,-6.001
-24.434,15.836,17.571,-4.722,0.409,-5.825
-18.793,19.898,12.326,-3.0,0.38,-3.706
-12.7,16.309,4.922,-0.702,-0.016,-1.402
-8.723,6.249,0.907,1.501,-0.324,0.814
-11.716,-2.185,1.921,2.357,0.087,2.224
-11.545,-7.754,2.853,2.375,0.679,2.434
-10.297,-10.229,3.998,2.129,1.448,2.376
-7.239,-9.404,4.226,1.796,1.936,2.649
-6.833,-8.538,4.412,1.659,1.563,2.802
-6.247,-7.273,4.099,1.627,1.296,2.916
-5.291,-5.975,3.861,1.468,0.872,3.136
-5.435,-3.706,2.924,1.245,0.213,3.457
-7.282,-2.151,2.491,1.049,-0.272,3.603
-10.678,-1.475,1.79,0.675,-0.262,3.736
-16.976,-4.534,3.967,0.135,-0.417,3.076
-24.522,-7.236,9.049,-1.014,-0.1,0.9
-33.216,-5.625,17.766,-2.802,0.212,-1.8
-39.465,1.257,24.131,-4.571,0.565,-4.522
-35.22,8.406,24.022,-5.371,0.701,-6.683
-28.521,17.362,19.566,-5.199,0.689,-6.601
-21.666,22.183,13.694,-3.798,0.464,-4.477
-15.033,19.213,4.882,-1.568,0.011,-2.113
-8.983,10.13,-1.202,0.714,0.024,0.238
-10.149,1.421,-0.619,1.987,0.185,2.115
-11.051,-5.735,1.555,2.398,0.527,2.638
-10.796,-9.643,2.922,2.272,1.06,2.62
-8.333,-10.324,3.27,1.964,1.666,2.638
-6.899,-9.437,3.199,1.734,1.604,2.683
-6.367,-8.881,2.903,1.654,1.501,2.637
-5.954,-7.846,2.979,1.533,1.215,2.505
-5.787,-6.326,2.272,1.24,0.6,2.411
-6.036,-4.31,1.81,0.921,0.163,2.576
-6.77,-2.821,0.97,0.596,-0.059,2.917
-8.824,-1.982,0.41,0.258,-0.129,3.497
-15.587,-4.884,2.0,-0.193,-0.326,3.578
-24.24,-9.079,6.702,-1.163,-0.256,1.568
-34.967,-6.391,14.532,-2.754,0.074,-0.978
-41.137,0.53,19.641,-4.291,0.638,-3.717
-38.04,9.425,19.692,-4.912,0.901,-5.859
-29.927,17.755,16.217,-4.476,1.047,-6.276
-22.109,23.719,11.005,-2.959,0.711,-4.065
-14.106,18.54,3.976,-0.75,0.458,-1.737
-8.247,8.692,-0.337,1.18,0.139,0.569
-9.732,-2.194,0.214,2.049,0.125,2.128
-11.454,-8.58,1.388,2.057,0.648,2.539
-10.319,-12.024,2.147,1.557,1.655,2.368
-6.778,-11.213,1.366,1.047,2.169,2.436
-4.883,-9.828,0.823,0.771,2.222,2.662
-4.795,-8.064,0.124,0.617,1.956,2.743
-4.568,-7.753,0.168,0.481,1.616,2.572
-5.148,-6.146,-0.406,0.463,0.933,2.244
-5.873,-5.098,-0.377,0.55,0.207,1.843
-6.294,-3.81,-0.285,0.582,-0.088,1.67
-5.536,-2.376,-0.453,0.628,-0.432,2.078
-9.016,-2.976,0.428,0.58,-0.935,2.98
-17.984,-9.959,4.062,-0.064,-0.89,2.559
-26.829,-11.775,9.087,-1.717,-0.641,0.564
-35.207,-6.134,14.101,-3.346,-0.153,-1.796
-37.786,-1.3,16.285,-4.271,0.484,-4.23
-33.275,5.922,14.702,-4.448,0.786,-5.773
-24.021,16.195,10.117,-3.675,0.755,-5.157
-16.365,18.525,4.01,-1.731,0.461,-2.539
-11.097,10.985,-0.964,0.274,-0.029,-0.032
-10.067,3.743,-2.71,1.502,-0.115,1.916
-11.261,-3.447,-1.595,1.974,0.385,2.637
-10.779,-7.951,-0.311,2.063,0.761,2.629
-9.152,-9.873,0.639,1.841,1.2,2.274
-7.169,-9.813,0.199,1.593,1.318,1.948
-5.974,-9.881,-0.063,1.284,1.175,1.721
-5.45,-8.838,-0.262,1.024,0.886,1.515
-5.396,-7.4,-0.153,0.683,0.524,1.382
-4.515,-5.161,-0.089,0.424,0.135,1.523
-3.344,-3.634,0.174,0.172,-0.185,2.323
-5.656,-2.624,0.987,-0.088,-0.079,3.705
-15.485,-5.744,2.911,-0.617,-0.483,4.021
-24.147,-9.006,5.082,-1.471,-0.152,2.096
-35.085,-5.985,9.778,-2.654,0.507,-0.309
-40.698,-0.024,12.936,-3.439,1.515,-3.291
-36.304,6.601,12.124,-3.518,1.33,-5.851
-25.857,14.551,8.188,-3.007,1.317,-6.218
-17.982,19.09,4.839,-1.779,0.924,-3.807
-10.624,13.347,0.126,-0.194,0.244,-1.474
-5.954,5.283,-2.824,0.946,-0.421,0.597
-7.279,-1.99,-2.892,1.514,-0.21,1.996
-7.934,-7.165,-0.551,1.843,0.475,2.643
-8.01,-9.605,0.342,1.83,0.78,2.702
-7.281,-9.205,0.343,1.761,1.093,2.882
-7.37,-8.707,0.44,1.558,1.567,3.29
-7.009,-7.889,0.984,1.262,1.719,3.679
-6.537,-5.927,1.007,0.86,1.174,3.83
-7.045,-4.425,1.568,0.541,0.595,3.943
-7.198,-3.614,1.768,0.248,0.091,4.049
-10.392,-4.497,1.749,-0.194,-0.573,4.039
-16.441,-7.93,1.134,-0.999,-1.199,3.112
-25.48,-9.963,3.227,-1.92,-0.323,1.044
-32.926,-7.556,9.22,-2.694,1.054,-1.539
-38.504,0.316,13.304,-3.715,1.781,-4.158
-32.549,9.851,13.598,-3.704,2.387,-5.966
-26.234,17.985,12.084,-2.805,1.833,-5.96
-19.305,21.153,8.104,-1.467,0.985,-4.287
-12.215,16.704,1.786,-0.259,0.216,-1.993
-6.278,7.851,-1.933,1.176,-0.268,0.123
-8.585,-1.8,-2.07,1.775,-0.592,1.585
-9.337,-8.025,-0.321,1.879,0.238,2.169
-8.164,-11.336,0.619,1.658,0.688,2.307
-7.574,-10.852,0.528,1.413,0.863,2.353
-6.503,-10.855,0.432,1.217,1.341,2.542
-5.458,-9.332,0.386,1.143,1.416,2.71
-4.5,-7.749,0.586,1.072,1.315,2.835
-3.699,-5.449,0.86,0.967,0.891,3.075
-3.946,-3.578,0.831,0.912,0.343,3.344
-6.455,-2.697,0.175,0.829,-0.159,3.626
-13.876,-8.361,0.96,0.395,-0.109,3.537
-21.573,-13.185,3.319,-0.885,-0.084,1.385
-30.437,-11.699,8.451,-2.378,0.22,-1.16
-35.331,-7.528,11.222,-3.504,0.468,-3.769
-33.144,0.103,11.937,-3.803,0.608,-5.434
-27.343,10.046,9.465,-3.349,-0.2,-5.864
-21.442,16.303,5.787,-1.831,-0.12,-3.621
-15.117,12.647,1.264,-0.026,-0.275,-1.148
-11.278,6.392,-0.887,1.263,-0.311,1.045
-12.122,-2.559,-1.269,1.662,-0.147,2.151
-11.28,-7.89,-0.1,1.616,0.549,2.438
-11.061,-10.101,0.787,1.306,0.642,2.165
-8.867,-9.025,0.117,1.087,1.065,1.95
-7.301,-7.932,0.053,1.131,1.174,2.044
-5.957,-6.703,0.531,1.213,1.078,2.151
-5.434,-5.535,0.923,1.285,0.643,2.205
-4.426,-3.843,1.01,1.31,0.551,2.371
-4.623,-2.615,0.89,1.309,-0.042,2.564
-6.833,-2.506,0.335,1.139,-0.331,2.773
-10.094,-4.389,0.092,0.83,-0.335,3.036
-16.46,-9.675,2.504,0.108,-0.155,2.316
-25.406,-12.156,8.249,-1.203,-0.094,-0.009
-34.898,-9.167,15.482,-2.997,0.142,-2.459
-36.218,-1.313,16.683,-4.288,0.726,-4.956
-31.206,6.696,14.647,-4.132,0.537,-6.112
-26.04,15.213,11.057,-3.119,0.088,-5.422
-19.915,16.505,5.568,-1.373,-0.006,-3.044
-11.318,11.344,-0.552,0.64,0.117,-0.818
-8.906,2.001,-1.084,2.113,-0.324,1.278
-11.545,-5.473,1.171,2.274,-0.003,2.077
-10.894,-9.922,2.31,1.952,0.838,2.166
-8.442,-10.349,2.709,1.578,1.43,2.216
-7.401,-9.839,2.492,1.353,1.599,2.464
-6.499,-8.821,2.413,1.256,1.87,2.761
-5.6,-7.346,2.507,1.253,1.774,3.117
-5.343,-5.565,2.486,1.207,1.436,3.38
-5.36,-3.88,2.026,1.131,0.547,3.493
-5.803,-3.182,1.48,1.084,-0.127,3.561
-7.345,-3.088,1.333,0.862,-0.753,3.609
-11.262,-5.929,2.903,0.359,-1.644,3.314
-19.388,-9.497,7.586,-0.9,-1.378,2.029
-27.697,-9.193,16.126,-2.749,-0.265,-0.513
-36.415,-1.608,23.629,-4.66,0.52,-3.055
-34.377,7.069,25.301,-5.414,1.35,-5.351
-29.7,15.114,22.112,-4.974,1.404,-6.1
-23.696,20.877,16.379,-3.386,0.884,-5.081
-17.302,19.303,7.946,-1.132,0.169,-2.761
-9.885,9.952,1.478,1.08,-0.057,-0.489
-11.254,-0.325,0.105,2.109,-0.306,1.443
-13.336,-7.087,1.383,2.148,0.895,2.071
-11.174,-11.249,2.547,1.721,1.79,2.027
-8.676,-11.181,2.83,1.217,2.551,2.099
-5.903,-9.922,2.872,0.768,2.742,2.426
-4.076,-7.72,2.909,0.579,2.258,2.878
-3.024,-5.837,2.997,0.484,1.496,3.392
-3.2,-3.725,2.679,0.522,0.81,3.96
-4.282,-2.179,1.848,0.586,-0.397,4.203
-8.306,-1.282,1.198,0.677,-1.681,4.1
-13.783,-2.658,2.157,0.569,-2.081,3.676
-19.4,-5.851,4.827,-0.201,-1.587,2.485
-25.989,-6.615,10.515,-1.624,-1.047,-0.084
-32.584,-3.381,17.437,-3.275,-0.051,-2.719
-33.791,3.329,19.977,-4.655,1.214,-5.216
-26.722,10.775,17.986,-4.949,2.019,-6.525
-20.65,17.426,13.957,-4.055,1.328,-6.035
-16.054,19.395,7.771,-2.286,0.536,-3.908
-10.809,14.126,1.304,-0.285,0.051,-1.706
-8.122,5.589,-0.923,1.432,-0.157,0.434
-11.133,-2.737,-0.165,1.977,0.198,1.678
-11.199,-8.233,1.366,1.858,1.025,1.979
-8.792,-10.845,1.937,1.457,1.66,1.921
-5.983,-10.175,1.585,1.115,1.664,2.197
-5.516,-9.466,1.02,1.038,1.52,2.365
-4.428,-8.457,1.195,1.048,1.103,2.352
-4.263,-7.228,0.959,1.001,0.293,2.276
-4.308,-5.558,0.571,0.944,-0.13,2.382
-5.088,-4.736,0.613,0.924,-0.072,2.637
-5.327,-4.322,0.784,0.591,-0.068,3.312
-13.258,-6.377,1.868,0.023,-0.219,3.842
-22.355,-10.838,5.14,-1.098,0.196,2.238
-32.676,-8.952,12.863,-2.628,0.82,-0.064
-41.8,-1.777,18.692,-4.109,0.926,-2.797
-41.111,7.031,18.636,-4.617,0.739,-5.641
-32.258,15.619,14.407,-4.055,0.536,-6.532
-23.686,22.738,10.145,-2.424,0.362,-4.309
-17.196,18.136,3.397,-0.44,-0.227,-1.809
-9.364,8.443,-1.643,1.269,-0.238,0.437
-8.805,-1.866,-1.475,2.001,0.279,2.513
-9.91,-8.793,0.945,1.95,0.801,3.102
-9.263,-11.696,1.297,1.572,1.599,2.914
-6.344,-9.967,0.989,1.289,2.029,3.112
-6.858,-9.387,0.795,1.147,2.073,3.344
-7.212,-7.874,0.758,0.971,1.787,3.405
-7.276,-5.916,0.822,0.723,1.282,3.421
-7.481,-3.802,0.745,0.435,0.481,3.47
-7.661,-3.098,-0.319,0.214,-0.12,3.363
-7.936,-2.087,-1.183,0.04,-0.818,3.401
-12.003,-6.357,-0.612,-0.138,-1.725,3.111
-21.988,-10.687,3.712,-0.901,-1.379,1.594
-31.803,-9.274,11.717,-2.14,-0.738,-0.901
-40.618,-0.214,18.787,-3.725,-0.004,-3.494
-37.602,10.671,19.149,-4.361,0.595,-5.537
-30.922,20.336,16.426,-3.845,0.922,-5.746
-23.414,26.35,11.521,-2.405,0.397,-4.026
-16.035,22.124,4.331,-0.82,0.523,-1.735
-7.953,11.21,-1.724,0.998,0.302,0.43
-9.472,-0.687,-1.266,1.819,0.489,2.056
-11.097,-7.17,0.716,1.534,1.355,2.532
-8.43,-10.124,1.004,0.992,2.084,2.561
-7.026,-8.978,0.197,0.848,1.616,2.915
-7.282,-9.255,0.098,0.867,1.563,3.114
-7.122,-9.32,0.081,0.844,0.994,3.195
-7.562,-8.211,0.304,0.748,-0.118,2.981
-7.607,-6.803,0.339,0.639,-0.903,2.781
-7.077,-5.528,0.462,0.479,-0.681,2.854
-6.74,-3.818,0.836,0.191,-0.867,3.351
-14.764,-5.318,3.953,-0.306,-1.582,3.278
-24.938,-9.171,8.209,-1.441,-0.377,1.398
-33.431,-5.382,15.928,-3.008,0.555,-0.903
-39.859,0.985,21.122,-4.464,0.704,-3.62
-36.92,9.644,20.466,-4.779,0.834,-5.603
-28.234,17.937,15.593,-4.208,1.253,-5.79
-19.589,23.996,10.23,-2.48,0.564,-3.338
-14.166,18.176,3.627,-0.348,0.311,-0.87
-9.308,9.161,-0.358,1.531,-0.005,1.413
-11.934,-1.725,0.098,2.23,0.306,2.572
-11.866,-8.81,1.985,2.248,1.19,2.735
-10.052,-11.854,2.541,1.784,1.748,2.468
-7.102,-11.05,1.964,1.327,1.999,2.551
-6.681,-10.002,1.373,1.068,1.961,2.635
-5.676,-8.513,1.501,0.906,1.53,2.893
-5.646,-6.291,1.369,0.714,0.97,3.296
-5.533,-3.993,1.531,0.531,0.253,3.633
-6.456,-1.914,1.278,0.394,-0.647,3.891
-8.1,-0.042,1.269,0.2,-0.972,4.277
-14.215,-1.399,2.267,-0.293,-1.451,4.263
-24.997,-5.325,4.024,-1.291,-0.886,2.606
-33.895,-3.847,10.692,-2.337,0.36,-0.077
-43.187,4.087,18.549,-3.461,1.897,-2.886
-40.3,11.595,21.111,-3.937,2.267,-5.638
-32.471,18.746,17.484,-3.563,1.955,-6.722
-22.852,25.506,13.721,-2.301,1.287,-5.354
-16.579,23.151,6.813,-0.822,0.233,-2.836
-8.408,12.435,-0.314,0.695,-0.69,-0.55
-9.758,2.03,-2.737,1.531,-0.573,1.526
-11.696,-4.931,-0.369,1.799,0.706,2.411
-9.938,-9.285,1.54,1.719,1.469,2.559
-7.423,-10.214,1.696,1.535,1.884,2.675
-6.639,-9.4,1.522,1.395,1.872,2.993
-5.028,-7.713,1.607,1.178,1.565,3.431
-4.752,-5.46,2.093,1.053,0.686,4.033
-6.581,-2.732,2.491,0.893,-0.012,4.564
-8.109,-0.721,2.788,0.78,-0.499,4.673
-9.204,0.682,3.349,0.507,-1.258,4.701
-14.287,0.436,3.853,0.2,-1.694,4.468
-21.186,-2.608,4.901,-0.439,-1.889,3.234
-27.804,-4.408,10.177,-1.51,-0.735,0.758
-35.997,-1.312,19.604,-3.16,0.462,-1.985
-39.423,9.045,26.615,-4.846,1.722,-4.618
-31.837,19.054,25.02,-5.16,2.205,-6.539
-24.117,25.742,21.096,-4.204,2.259,-6.41
-18.384,26.906,14.823,-2.685,0.945,-4.502
-10.906,20.915,5.323,-0.826,0.286,-2.367
-6.16,8.478,-2.566,1.247,-0.158,-0.285
-8.917,-2.411,-1.509,1.984,0.16,1.493
-9.986,-7.568,1.096,1.691,0.919,2.133
-8.268,-9.169,1.61,1.365,1.519,2.276
-6.647,-8.068,1.681,1.344,1.516,2.725
-6.406,-7.292,2.18,1.408,1.429,3.203
-7.019,-6.65,2.459,1.62,1.246,3.495
-7.322,-6.06,2.823,1.826,0.866,3.663
-7.798,-5.139,3.069,1.865,0.572,3.66
-8.143,-4.088,2.685,1.675,0.164,3.652
-8.539,-2.652,1.823,1.172,0.092,3.656
-10.116,-1.062,0.89,0.459,-0.065,3.7
-15.159,-3.183,1.151,-0.4,-0.278,3.432
-23.654,-7.407,3.559,-1.414,0.162,1.634
-33.588,-6.863,10.212,-2.702,0.763,-0.941
-43.172,0.576,17.753,-3.844,1.566,-3.505
-42.405,7.443,21.154,-4.249,1.653,-5.978
-36.012,15.915,18.639,-3.77,1.445,-6.887
-27.256,23.352,14.338,-2.626,0.769,-5.39
-18.744,22.826,7.259,-0.874,0.069,-2.831
-9.949,13.298,0.482,0.867,-0.516,-0.299
-10.268,4.038,-1.902,1.94,-0.429,2.07
-12.565,-3.58,0.286,2.253,0.29,3.022
-12.816,-8.653,2.371,2.172,0.89,2.959
-11.084,-10.875,3.414,1.804,1.478,2.578
-8.93,-10.406,2.969,1.456,1.637,2.291
-7.371,-9.299,2.742,1.311,1.713,2.314
-6.278,-7.796,2.882,1.143,1.552,2.47
-6.09,-6.018,2.884,0.984,0.968,2.82
-6.375,-3.652,2.396,0.874,0.42,3.144
-7.673,-2.654,2.081,0.806,-0.347,3.385
-9.806,-2.31,1.373,0.625,-0.785,3.372
-12.279,-6.167,2.17,0.199,-1.131,3.097
-19.328,-10.579,3.781,-1.063,-1.025,1.872
-26.944,-11.726,10.05,-2.395,-0.053,-0.63
-37.165,-8.315,17.042,-3.617,0.901,-3.117
-40.45,-0.09,19.877,-4.63,1.23,-5.494
-35.649,11.8,17.114,-4.625,1.541,-6.491
-26.997,20.435,13.518,-3.292,1.459,-5.423
-22.309,22.033,7.0,-1.536,0.18,-2.571
-12.982,16.201,0.821,-0.091,-0.095,-0.058
-9.096,6.107,-1.374,1.132,-0.154,2.343
-12.182,-3.529,-0.317,1.569,0.183,3.442
-13.062,-9.252,1.175,1.528,0.798,3.292
-9.11,-11.031,1.064,1.191,1.483,2.747
-6.982,-9.156,0.543,1.058,1.606,2.777
-5.618,-7.143,0.172,1.061,1.447,2.793
-5.412,-5.946,0.818,1.163,1.114,2.971
-6.291,-4.679,1.05,1.276,0.513,3.196
-7.265,-4.078,1.625,1.263,-0.001,3.263
-8.596,-3.461,1.659,1.133,-0.943,3.107
-10.068,-3.302,1.567,0.842,-1.05,2.983
-11.219,-3.578,1.372,0.365,-1.139,2.994
-16.779,-6.865,2.51,-0.336,-1.132,2.692
-24.078,-11.235,7.105,-1.436,-0.18,0.762
-32.421,-9.742,14.763,-2.878,0.751,-1.626
-38.106,-5.477,20.375,-3.875,1.165,-3.918
-40.246,3.22,22.04,-4.581,1.255,-5.997
-33.979,13.805,19.269,-4.282,1.145,-6.817
-25.389,22.18,12.907,-2.921,0.247,-5.233
-18.006,21.077,5.111,-0.675,-0.474,-2.644
-13.069,14.386,0.878,0.839,-0.477,-0.361
-9.816,4.363,-0.122,2.051,-0.244,1.631
-10.434,-4.581,1.447,2.451,0.206,2.741
-11.122,-10.58,3.628,2.318,0.754,3.167
-9.432,-12.371,3.827,1.737,1.289,3.068
-7.652,-10.573,2.964,1.531,1.427,3.251
-7.819,-9.46,3.053,1.655,1.397,3.343
-8.306,-8.6,4.06,1.741,1.191,3.118
-8.357,-7.206,4.233,1.7,0.732,2.78
-7.398,-6.04,4.099,1.507,0.172,2.651
-6.82,-4.993,3.06,1.171,-0.438,2.786
-6.023,-5.877,2.426,0.772,-0.629,3.218
-12.534,-6.703,5.465,-0.046,-0.908,3.757
-25.348,-8.598,9.308,-1.346,-0.67,2.182
-34.886,-3.785,16.393,-2.752,-0.039,-0.179
-43.748,5.678,23.67,-4.248,1.325,-2.78
-41.347,18.252,24.574,-4.92,1.585,-5.148
-31.29,25.736,18.979,-4.318,1.462,-6.102
-20.332,30.763,13.968,-2.759,0.787,-4.225
-13.644,24.528,6.96,-1.043,0.693,-1.78
-6.271,13.412,0.779,0.786,-0.307,0.555
-9.666,1.19,-0.035,1.697,-0.416,2.319
-13.152,-6.311,1.95,1.818,0.299,2.827
-11.042,-10.176,2.922,1.554,1.244,2.698
-8.309,-9.398,2.482,1.413,1.253,2.703
-7.857,-8.936,2.79,1.511,1.312,2.849
-7.246,-8.095,3.228,1.485,1.336,2.927
-7.184,-6.801,3.551,1.413,0.745,2.914
-7.874,-5.653,3.588,1.314,0.008,2.828
-9.511,-4.498,3.752,1.238,-0.337,2.682
-9.127,-3.702,3.346,0.935,-0.57,2.508
-10.328,-2.939,3.363,0.693,-0.955,2.753
-15.836,-7.735,5.295,-0.062,-0.484,2.66
-22.572,-11.61,9.65,-1.37,0.457,0.853
-30.119,-9.942,16.662,-2.989,1.187,-1.451
-35.225,-3.715,21.863,-4.386,1.705,-3.759
-33.651,2.699,22.556,-4.952,1.715,-5.721
-27.865,12.838,18.802,-4.293,1.11,-6.34
-20.932,19.241,12.731,-2.803,0.3,-4.624
-13.684,17.54,5.045,-0.872,-0.443,-2.119
-9.437,10.583,-0.466,0.846,-0.68,0.472
-11.341,3.468,-1.287,1.773,-0.378,2.39
-12.513,-2.82,0.351,1.979,0.239,3.162
-13.154,-6.836,2.392,2.022,0.731,3.184
-11.97,-8.601,3.488,1.871,0.988,2.761
-10.149,-8.786,3.475,1.827,1.032,2.32
-8.879,-8.483,3.373,1.94,0.933,2.087
-8.743,-8.174,3.418,2.014,0.882,1.805
-8.275,-7.536,3.333,1.929,0.532,1.589
-7.702,-6.685,3.433,1.759,0.192,1.575
-7.239,-5.254,3.646,1.426,-0.193,1.88
-7.184,-3.926,3.346,1.004,-0.343,2.317
-8.664,-3.686,3.641,0.522,-0.546,3.003
-15.383,-7.922,6.331,-0.335,-0.592,2.982
-24.695,-11.147,10.897,-1.875,-0.06,1.138
-34.7,-7.623,19.364,-3.482,0.836,-1.317
-40.416,-0.978,25.392,-4.857,1.468,-3.97
-36.42,7.793,24.866,-5.271,1.497,-6.049
-28.737,18.072,19.813,-4.51,1.157,-6.258
-20.504,23.969,13.864,-2.541,0.45,-4.18
-13.374,19.124,5.269,-0.349,-0.244,-1.722
-8.467,10.489,-0.032,1.392,-0.472,0.658
-10.824,0.712,0.545,2.208,-0.146,2.359
-12.202,-6.275,2.923,2.324,0.72,2.825
-11.224,-10.404,4.031,2.031,1.437,2.768
-8.876,-10.783,4.085,1.699,1.929,2.775
-8.236,-10.375,3.386,1.493,1.82,2.934
-8.766,-9.817,3.051,1.442,1.72,2.995
-8.696,-8.524,2.434,1.337,1.439,3.048
-8.892,-6.683,2.39,1.168,1.107,3.114
-8.807,-4.779,1.844,0.834,0.575,3.209
-9.229,-2.873,0.967,0.582,0.308,3.301
-10.362,-2.578,-0.479,0.39,-0.017,3.303
-13.818,-7.248,0.754,0.103,-0.172,2.827
-23.242,-11.957,5.057,-1.213,-0.592,0.934
-35.245,-10.422,13.574,-2.859,-0.117,-1.626
-44.645,-3.576,21.307,-4.362,0.191,-4.258
-43.896,8.239,23.343,-5.281,0.5,-6.506
-36.695,19.829,21.003,-4.954,0.354,-6.638
-28.336,27.552,16.337,-3.099,0.107,-4.684
-18.952,23.576,8.881,-0.898,-0.198,-2.143
-9.121,14.782,1.764,0.869,-0.326,0.287
-8.351,2.72,0.659,2.1,-0.386,2.477
-12.694,-5.083,1.718,2.364,0.009,2.998
-11.315,-9.576,2.658,2.22,1.05,2.785
-8.774,-9.241,2.13,2.167,1.089,2.488
-7.94,-8.783,2.367,2.409,1.215,2.454
-8.848,-9.06,2.933,2.5,1.095,2.337
-8.58,-8.839,3.564,2.329,1.03,2.18
-9.239,-8.236,3.548,1.974,0.574,2.041
-9.25,-6.794,3.663,1.587,0.292,1.998
-9.24,-5.163,3.669,1.232,0.096,2.063
-7.617,-2.385,3.077,0.958,0.111,2.581
-8.635,-0.936,3.385,0.841,-0.08,3.334
-13.272,-3.468,4.694,0.623,-0.337,3.754
-20.893,-9.333,7.519,-0.322,-0.111,2.546
-30.342,-9.898,14.343,-2.052,0.646,0.086
-39.797,-4.465,22.288,-3.662,1.414,-2.596
-40.834,4.074,25.133,-4.868,1.851,-5.313
-33.486,13.834,21.782,-4.757,1.94,-6.705
-25.221,23.171,16.93,-3.363,1.417,-5.621
-17.951,23.239,9.411,-1.095,0.251,-3.035
-10.007,15.312,2.226,0.789,-0.213,-0.619
-8.631,4.881,-0.685,2.117,-0.513,1.642
-11.85,-3.465,1.266,2.333,-0.038,2.731
-12.605,-8.953,3.26,2.053,0.529,2.898
-10.85,-11.143,3.711,1.645,1.171,2.668
-9.275,-10.814,2.934,1.417,1.218,2.726
-8.817,-10.35,2.294,1.427,1.485,2.706
-8.015,-9.42,2.501,1.439,1.322,2.631
-7.568,-7.883,2.625,1.327,0.964,2.499
-6.016,-5.553,2.7,1.13,0.612,2.567
-4.944,-3.4,2.536,0.932,0.023,2.817
-5.162,-1.259,3.211,0.496,-0.72,3.391
-9.278,-0.096,3.594,-0.169,-1.108,3.763
-13.516,-1.606,3.405,-0.92,-0.792,3.532
-18.824,-4.371,4.152,-1.672,-0.233,2.373
-27.186,-5.597,8.261,-2.434,0.537,0.161
-35.858,-2.418,15.122,-3.246,1.767,-2.654
-38.33,8.64,19.871,-3.949,2.611,-5.087
-30.674,19.119,20.071,-3.616,2.434,-6.639
-24.1,26.21,17.01,-2.822,1.588,-5.954
-17.595,28.843,12.424,-1.634,0.574,-3.705
-11.303,23.637,5.842,-0.262,-0.231,-1.175
-6.237,11.133,0.696,1.237,-0.681,1.083
-11.412,-0.113,1.037,1.963,-0.572,2.829
-14.29,-7.164,3.655,2.204,0.366,2.882
-12.074,-11.183,4.143,1.929,1.31,2.39
-8.426,-9.565,3.363,1.85,1.677,2.591
-8.637,-9.857,3.887,1.711,1.994,2.766
-7.085,-7.912,3.837,1.503,1.908,2.934
-6.288,-5.96,3.56,1.389,1.214,3.222
-6.902,-3.731,3.821,1.309,0.841,3.519
-6.903,-2.93,2.958,0.955,0.301,3.406
-6.838,-0.209,1.799,0.571,-0.143,3.753
-10.799,0.541,1.28,-0.012,-0.447,4.05
-20.999,-1.881,1.295,-0.844,-0.764,3.309
-30.784,-4.103,5.696,-1.742,0.144,0.742
-41.857,1.305,15.082,-2.817,1.608,-1.877
-45.384,9.227,20.62,-3.605,2.374,-4.657
-38.166,17.297,20.448,-3.538,2.782,-6.448
-26.443,24.291,19.106,-2.798,2.635,-6.107
-19.053,27.871,13.194,-1.574,0.877,-3.705
-9.962,20.382,4.438,-0.079,-0.405,-1.516
-6.125,9.838,-0.852,1.229,-1.269,0.55
-10.395,-0.172,-1.02,1.868,-1.294,1.704
-12.176,-6.333,-0.077,2.078,-0.506,1.756
-9.808,-9.638,1.142,1.888,0.526,1.484
-7.685,-9.316,0.458,1.659,0.844,1.71
-7.838,-8.766,0.873,1.567,1.296,1.982
-7.189,-8.042,1.662,1.464,1.506,2.314
-7.29,-7.111,2.272,1.339,1.321,2.622
-7.694,-5.868,2.616,1.273,1.017,2.765
-7.457,-5.143,3.359,1.232,0.621,2.845
-6.61,-3.613,2.593,1.056,0.05,3.164
-7.924,-2.885,2.653,0.765,-0.482,3.778
-14.061,-3.443,4.265,0.018,-0.921,4.064
-22.391,-6.875,5.343,-1.129,0.153,2.78
-31.611,-6.414,8.605,-2.329,1.008,0.285
-42.018,-0.188,16.042,-3.326,2.237,-2.372
-41.714,8.318,20.536,-3.898,2.846,-5.223
-33.031,15.81,17.308,-3.617,2.656,-6.526
-25.178,22.989,14.368,-2.314,1.111,-5.256
-18.846,22.389,10.463,-0.751,0.158,-2.767
-9.075,14.023,3.5,0.542,-0.638,-0.506
-8.645,4.416,-1.437,1.574,-0.885,1.662
-11.635,-3.308,-0.378,2.184,-0.039,2.548
-10.821,-8.527,1.526,2.223,0.976,2.477
-8.57,-9.337,1.692,2.011,1.28,2.263
-7.083,-8.717,2.023,2.027,1.516,2.419
-7.496,-8.595,2.404,1.94,1.283,2.56
-7.635,-8.422,2.767,1.757,0.925,2.573
-8.458,-6.8,2.323,1.412,0.534,2.716
-7.922,-5.323,2.68,0.995,0.533,3.03
-8.974,-3.854,2.032,0.401,0.038,3.294
-8.8,-2.581,1.305,-0.189,-0.062,3.585
-10.395,-1.473,1.245,-0.906,-0.441,3.988
-17.388,-3.235,1.552,-1.591,-1.004,3.703
-26.449,-5.562,4.988,-2.199,0.001,1.807
-35.854,-2.551,13.153,-2.952,1.312,-0.873
-43.544,8.955,20.517,-3.458,2.847,-3.474
-39.859,19.135,23.192,-3.123,3.697,-6.009
-29.041,26.435,21.263,-2.491,3.548,-6.573
-20.624,31.76,16.022,-1.511,1.937,-4.859
-13.372,28.529,7.724,-0.049,0.557,-2.116
-6.894,15.437,1.208,1.18,-0.827,0.19
-9.964,3.212,-1.035,1.824,-1.055,2.233
-13.449,-4.516,1.017,2.29,-0.085,2.882
-12.999,-9.645,2.974,2.4,0.651,2.789
-11.115,-11.487,3.757,2.19,1.212,2.521
-10.13,-11.067,3.759,2.007,1.596,2.652
-8.894,-9.767,3.78,1.919,1.662,2.916
-8.112,-8.19,3.873,1.799,1.347,3.094
-6.9,-6.565,3.953,1.586,1.061,3.307
-5.604,-4.201,3.476,1.21,0.415,3.473
-5.489,-2.687,3.215,0.674,-0.207,3.726
-7.499,-0.987,3.007,-0.124,-0.623,3.854
-11.666,-1.292,3.022,-0.939,-0.904,3.624
-20.003,-3.39,4.002,-1.926,-1.107,2.503
-30.088,-4.764,9.052,-2.949,0.351,0.082
-40.577,0.883,17.418,-3.545,2.258,-2.608
-40.482,10.665,23.194,-3.533,3.609,-5.043
-33.348,17.735,22.797,-3.16,3.444,-6.295
-25.274,23.123,20.398,-2.07,2.927,-5.796
-18.953,24.525,14.286,-0.576,1.195,-3.694
-8.18,16.965,5.15,0.484,-0.124,-1.599
-6.328,4.812,-1.219,1.142,-1.157,0.564
-10.096,-3.185,-1.264,1.44,-0.463,1.937
-10.771,-8.092,-0.218,1.339,0.612,2.278
-7.227,-10.163,0.42,1.065,1.25,2.288
-6.792,-8.527,0.205,1.196,1.151,2.65
-8.17,-8.187,1.109,1.311,1.493,2.854
-7.921,-7.348,1.794,1.364,1.383,2.996
-8.646,-5.873,2.316,1.362,0.845,3.154
-8.89,-4.201,2.803,1.34,0.563,3.352
-9.39,-3.709,3.603,1.05,-0.086,3.416
-8.612,-2.375,2.741,0.79,-0.821,3.624
-10.09,-2.835,1.66,0.459,-0.968,3.949
-17.625,-5.535,2.149,-0.135,-0.746,3.65
-29.111,-8.199,4.527,-1.067,-0.093,1.239
-39.092,-3.143,12.601,-1.966,1.327,-1.283
-44.906,5.902,19.786,-2.956,2.557,-3.857
-42.782,15.641,21.108,-3.407,2.223,-6.341
-33.722,24.306,17.552,-2.943,1.907,-6.904
-21.704,29.1,13.562,-1.63,1.068,-4.659
-13.391,22.449,5.406,-0.232,-0.049,-2.145
-8.29,11.731,-1.181,0.988,-0.821,0.111
-9.837,1.371,-2.079,1.769,-0.224,1.999
-10.729,-6.104,0.09,1.924,0.313,2.583
-10.573,-10.159,1.038,1.571,0.806,2.569
-8.864,-9.448,0.606,1.274,1.271,2.596
-8.425,-9.145,0.611,1.249,1.314,2.8
-8.621,-8.663,1.176,1.342,1.246,2.981
-8.822,-8.192,2.011,1.414,0.902,2.928
-9.04,-7.065,2.598,1.419,0.574,2.665
-7.368,-6.731,2.959,1.16,0.272,2.456
-5.529,-5.351,2.657,0.627,0.019,2.555
-5.195,-2.759,1.779,-0.095,-0.419,3.003
-6.854,-0.827,1.28,-0.868,-0.58,3.697
-14.23,-0.205,1.741,-1.574,-1.029,3.995
-26.88,-2.848,2.949,-2.181,-0.563,2.437
-38.538,1.371,10.929,-2.641,1.086,-0.122
-46.551,11.823,19.671,-3.124,2.517,-2.823
-41.89,21.756,23.703,-3.182,2.967,-5.48
-31.968,28.578,21.564,-2.722,2.777,-6.338
-21.335,35.073,18.906,-1.601,1.663,-4.719
-13.634,30.852,10.782,-0.227,-0.031,-2.191
-6.807,18.151,3.118,1.131,-1.068,0.193
-11.834,5.58,-0.048,2.095,-1.005,2.313
-15.619,-3.487,1.749,2.538,0.043,2.859
-14.363,-9.239,3.568,2.348,0.968,2.538
-11.145,-10.614,3.519,1.86,1.274,2.22
-9.571,-10.218,2.318,1.579,1.171,2.158
-9.532,-9.161,1.7,1.584,1.145,2.11
-8.678,-8.286,2.302,1.501,1.144,2.083
-8.612,-6.579,2.359,1.348,0.73,2.095
-7.478,-4.914,2.602,1.168,0.598,2.352
-6.412,-3.39,3.329,0.801,0.612,2.893
-6.196,-1.35,3.237,0.147,0.026,3.584
-14.147,-1.369,3.214,-0.654,-1.019,3.816
-21.975,-7.832,2.8,-1.715,-0.597,2.494
-33.659,-8.357,8.928,-2.935,0.73,0.027
-45.569,-3.075,17.312,-3.569,1.324,-2.835
-47.672,4.179,21.804,-4.249,1.802,-5.707
-36.388,12.254,19.645,-3.862,2.259,-6.702
-29.511,23.764,17.581,-2.595,1.365,-5.169
-21.544,24.375,11.142,-0.707,-0.168,-2.432
-12.448,16.72,3.234,0.578,-0.822,0.069
-10.38,5.976,-0.6,1.931,-0.865,2.428
-14.38,-3.17,1.002,2.421,-0.399,3.281
-13.463,-9.964,2.941,2.43,0.338,3.078
-10.405,-11.392,2.409,2.015,0.652,2.584
-8.503,-10.519,1.435,1.82,0.99,2.513
-7.79,-9.257,1.332,1.656,1.098,2.404
-7.296,-8.175,1.819,1.469,0.955,2.32
-8.208,-6.699,2.291,1.256,0.585,2.137
-8.203,-5.657,3.17,1.02,0.425,1.962
-7.438,-3.967,2.977,0.657,-0.114,1.951
-6.978,-2.228,2.129,0.311,-0.546,2.442
-10.372,-2.803,1.426,-0.102,-0.764,3.25
-20.625,-7.887,1.852,-1.006,-0.592,2.825
-31.107,-8.482,6.379,-1.976,0.601,0.758
-42.48,-4.295,14.302,-2.857,1.403,-1.661
-46.809,1.274,19.636,-3.623,2.263,-4.403
-41.155,10.737,19.845,-3.647,2.301,-6.404
-28.642,22.332,17.411,-2.705,2.109,-5.865
-19.289,25.654,12.225,-1.115,0.404,-3.178
-12.127,19.796,5.821,0.44,-0.444,-0.502
-9.872,12.086,1.981,1.859,-0.954,1.96
-13.625,1.821,2.54,2.632,-0.788,3.18
-15.822,-6.715,4.527,2.935,-0.329,3.037
-14.254,-11.408,4.759,2.697,0.354,2.364
-10.76,-12.2,3.765,2.454,0.916,1.878
-8.612,-12.65,3.171,2.142,0.932,1.694
-7.88,-11.495,2.753,1.79,1.125,1.608
-7.064,-10.016,2.948,1.486,0.96,1.597
-6.781,-8.194,3.879,1.219,0.599,1.582
-5.587,-6.357,4.222,0.965,0.214,1.765
-4.089,-4.128,3.689,0.71,-0.001,2.283
-4.714,-2.523,3.756,0.511,-0.585,3.323
-13.207,-3.972,4.922,-0.102,-0.762,4.032
-23.667,-8.55,7.333,-1.248,0.091,2.724
-34.739,-6.571,14.603,-2.568,1.16,0.352
-44.948,2.472,22.191,-3.713,2.084,-2.445
-43.176,12.65,24.561,-4.423,2.442,-5.394
-33.127,21.277,20.748,-3.882,1.85,-6.59
-24.434,28.609,16.372,-2.224,0.812,-5.04
-16.602,25.156,9.177,-0.376,-0.154,-2.556
-8.539,13.736,2.36,1.106,-0.828,-0.216
-9.275,1.127,0.049,2.177,-0.696,1.81
-11.458,-6.772,1.934,2.389,0.337,2.538
-9.987,-10.76,3.42,2.028,1.232,2.673
-8.129,-9.816,3.296,1.718,1.431,2.938
-8.63,-9.082,3.714,1.763,1.719,3.323
-8.135,-7.653,4.612,1.811,1.656,3.783
-8.048,-5.755,5.593,1.809,1.185,4.24
-8.405,-4.13,5.694,1.699,0.42,4.522
-9.008,-3.331,5.365,1.419,-0.309,4.405
-9.162,-1.974,4.309,0.955,-0.793,4.252
-11.954,-1.72,3.563,0.311,-0.818,3.905
-17.082,-4.427,4.29,-0.594,-0.833,2.935
-26.512,-6.448,9.379,-1.712,-0.018,0.582
-37.323,-2.734,19.115,-3.14,1.564,-2.051
-43.085,5.685,26.79,-4.541,1.825,-4.622
-39.89,17.196,26.695,-5.219,1.937,-6.556
-33.203,26.243,22.84,-4.41,1.707,-6.653
-24.619,30.428,17.066,-2.815,0.807,-4.643
-14.941,24.414,8.044,-0.856,-0.272,-2.106
-8.985,14.393,1.18,0.984,-0.37,0.195
-9.212,1.267,1.237,2.179,-0.363,2.027
-10.714,-6.462,3.25,2.24,0.167,2.693
-9.792,-9.596,3.691,2.041,0.867,2.863
-8.92,-7.944,4.065,1.919,0.94,3.011
-8.237,-7.22,4.212,2.069,1.14,3.414
-9.115,-5.607,4.905,2.325,1.213,3.905
-9.472,-4.298,6.355,2.406,1.181,4.401
-10.075,-2.936,6.683,2.149,0.514,4.534
-9.858,-1.69,5.782,1.805,-0.017,4.523
-11.272,-0.008,4.525,1.277,-0.646,4.432
-17.311,-1.704,4.259,0.391,-0.888,3.848
-24.428,-5.434,6.001,-0.774,-0.329,1.821
-34.945,-4.719,13.659,-2.122,1.013,-0.796
-45.421,1.702,23.211,-3.427,2.047,-3.471
-47.852,9.798,28.455,-4.667,2.65,-6.083
-39.693,19.883,24.908,-4.697,2.26,-7.271
-30.776,27.975,19.789,-3.444,1.391,-5.757
-22.757,27.824,12.111,-1.511,-0.312,-3.236
-13.382,18.135,3.564,0.218,-0.496,-0.875
-9.092,7.31,-0.743,1.736,-0.411,1.49
-11.312,-2.858,2.145,2.413,0.047,2.857
-12.226,-8.686,4.386,2.23,0.845,2.93
-8.38,-10.439,3.258,1.907,1.968,3.104
-8.351,-9.265,2.357,1.776,1.696,3.275
-8.807,-9.371,2.093,1.852,1.621,3.344
-7.913,-8.048,2.192,1.814,1.547,3.439
-7.951,-6.694,1.945,1.636,0.831,3.412
-8.274,-5.944,2.446,1.154,0.359,3.166
-5.828,-4.08,1.674,0.614,-0.178,3.282
-5.822,-1.622,1.109,0.103,-0.752,3.725
-14.333,-0.56,2.124,-0.615,-1.428,3.985
-25.861,-5.331,4.642,-1.572,-0.355,2.408
-36.379,-2.553,12.201,-2.541,0.804,-0.039
-48.003,6.02,21.079,-3.257,2.218,-2.687
-48.412,15.163,25.029,-3.768,2.575,-5.565
-35.916,21.76,21.706,-3.32,3.027,-6.818
-24.385,30.502,18.018,-2.043,1.281,-5.197
-18.794,28.186,10.396,-0.466,-0.195,-2.661
-9.266,17.221,2.683,0.826,-1.047,-0.279
-10.149,5.401,-0.456,1.878,-1.158,1.948
-16.052,-3.33,1.604,2.356,-0.406,2.679
-15.688,-9.632,3.367,2.28,0.898,2.701
-12.251,-11.844,3.519,1.936,1.69,2.652
-10.693,-11.515,2.81,1.644,2.103,2.914
-9.307,-10.593,2.271,1.549,2.583,3.165
-7.177,-9.112,2.544,1.419,2.31,3.354
-7.082,-6.731,2.519,1.366,1.506,3.13
-5.02,-5.147,2.795,1.28,0.508,2.878
-4.01,-3.185,2.524,1.041,-0.565,2.826
-4.111,-0.437,1.914,0.591,-1.388,3.185
-10.471,0.392,2.062,0.128,-2.123,3.492
-19.847,-6.91,3.819,-0.691,-1.696,2.661
-30.273,-9.337,10.105,-2.217,-0.621,0.425
-43.4,-4.869,19.94,-3.575,1.03,-2.166
-49.443,1.291,25.643,-4.386,1.587,-5.003
-41.899,9.922,24.635,-4.506,1.964,-6.939
-31.93,22.78,20.553,-3.662,1.535,-6.211
-24.211,27.269,13.754,-1.633,0.544,-3.504
-15.546,20.187,5.152,0.39,-0.642,-0.828
-10.47,10.64,0.727,1.728,-0.601,1.634
-13.347,-0.463,1.211,2.305,-0.117,3.258
-14.673,-7.79,3.167,2.267,0.614,3.597
-14.557,-11.678,3.519,1.899,1.432,3.25
-11.447,-11.057,2.275,1.416,2.148,3.01
-10.474,-10.793,1.308,1.198,2.231,2.976
-10.093,-9.859,1.179,0.963,2.066,2.857
-10.484,-8.557,1.027,0.734,1.658,2.475
-8.684,-6.475,0.922,0.434,1.152,1.982
-7.044,-4.338,0.656,0.341,0.194,1.613
-4.589,-1.951,0.088,0.181,-0.306,1.6
-3.1,-0.064,-0.321,0.122,-0.911,2.247
-9.884,-4.23,1.71,-0.194,-2.089,3.013
-24.157,-10.929,4.561,-1.5,-1.395,1.545
-35.287,-8.398,11.59,-2.759,0.158,-0.522
-46.4,-1.904,18.561,-3.593,1.118,-2.936
-45.897,7.345,21.55,-3.98,1.348,-5.527
-37.197,18.428,18.085,-3.625,2.078,-6.478
-24.115,27.653,14.314,-1.784,1.361,-4.249
-17.615,22.629,8.393,0.054,-0.153,-1.481
-10.263,13.406,2.079,1.241,-0.512,0.9
-11.772,1.103,-0.568,1.935,0.148,2.923
-13.295,-6.984,0.64,2.088,0.862,3.352
-13.043,-11.573,1.224,1.773,1.305,3.064
-10.468,-10.885,0.513,1.195,1.926,2.754
-9.357,-9.711,-0.028,0.931,1.715,2.906
-9.173,-8.202,0.195,0.768,1.511,3.261
-9.271,-6.522,0.761,0.653,1.079,3.617
-9.029,-4.614,1.49,0.513,0.623,3.739
-7.924,-3.389,1.441,0.522,-0.054,3.76
-7.101,-2.201,2.084,0.432,-0.965,3.728
-8.498,-1.176,3.23,0.266,-2.165,3.703
-17.199,-5.341,5.752,-0.644,-2.244,3.252
-27.668,-8.505,9.869,-2.318,-1.081,1.327
-40.614,-4.297,20.429,-3.676,0.756,-1.151
-48.62,5.586,28.567,-4.644,2.332,-3.653
-45.075,15.531,28.786,-5.136,3.404,-5.929
-33.484,25.765,24.213,-4.295,3.338,-6.192
-23.646,32.249,18.953,-2.207,1.734,-4.207
-14.271,26.878,9.072,-0.274,0.151,-1.515
-8.083,14.839,1.268,1.169,-0.528,0.964
-11.806,2.297,0.15,2.158,-0.249,2.869
-15.319,-5.995,1.855,2.489,0.589,3.164
-14.409,-11.764,2.815,2.338,1.592,2.796
-11.186,-12.789,2.186,1.829,2.033,2.329
-7.898,-12.148,0.796,1.417,2.413,2.234
-6.901,-11.784,0.692,1.06,2.189,2.437
-6.616,-10.904,0.992,0.677,1.776,2.308
-7.383,-9.874,0.968,0.359,1.215,1.882
-7.225,-8.475,1.294,0.232,0.437,1.403
-7.628,-6.189,1.848,0.108,-0.714,1.047
-6.441,-3.216,1.077,-0.031,-0.938,1.226
-6.78,-2.389,0.439,-0.252,-1.236,2.133
-14.739,-7.515,1.274,-0.855,-1.773,2.582
-24.484,-11.66,2.112,-1.883,-0.412,0.835
-33.137,-10.695,7.074,-2.358,1.157,-1.193
-40.766,-5.865,12.448,-3.1,1.137,-3.722
-36.378,2.844,14.815,-3.088,1.379,-5.269
-27.374,14.832,12.763,-2.376,1.272,-5.409
-20.155,21.175,10.9,-0.744,-0.052,-2.69
-14.444,18.345,6.328,0.208,-0.87,-0.025
-9.727,11.752,1.548,1.366,-0.806,2.663
-16.766,0.69,-0.486,1.985,-0.838,3.431
-17.797,-7.641,0.28,2.261,0.35,3.099
-14.521,-11.151,0.66,2.01,0.947,2.271
-11.993,-10.884,-0.036,1.769,1.289,1.81
-10.304,-10.496,-0.032,1.659,1.48,1.519
-7.286,-8.505,0.919,1.372,1.787,1.675
-5.825,-6.428,1.879,1.044,1.17,2.168
-5.694,-4.605,2.434,0.748,0.517,2.654
-5.559,-3.956,2.61,0.583,-0.298,3.046
-4.897,-3.385,2.139,0.199,-0.685,3.42
-7.441,-3.079,0.97,-0.231,-1.045,3.987
-16.175,-3.432,1.702,-0.982,-1.423,3.707
-25.893,-5.295,4.709,-1.659,-0.039,1.63
-36.52,-2.408,10.964,-2.563,0.621,-0.967
-44.068,7.146,16.449,-3.355,1.461,-3.737
-39.283,17.636,19.057,-3.46,1.697,-6.177
-28.431,24.951,16.672,-2.888,1.686,-6.352
-20.659,30.361,12.213,-1.797,0.099,-4.065
-14.116,27.063,7.043,-0.316,-0.21,-1.255
-9.029,15.637,3.011,1.02,-0.841,1.306
-13.155,3.122,1.206,1.815,-1.051,3.116
-17.066,-5.884,2.646,2.231,0.053,3.428
-15.789,-11.772,3.316,1.928,0.828,2.961
-12.649,-12.925,2.51,1.447,1.407,2.388
-9.647,-12.415,1.772,1.015,1.85,2.006
-7.386,-10.438,1.598,0.737,2.003,1.901
-6.328,-8.336,1.717,0.608,1.492,1.783
-5.684,-5.953,2.467,0.644,0.935,1.694
-4.449,-4.297,2.385,0.703,0.087,1.851
-4.558,-2.766,1.508,0.686,-0.434,2.336
-6.683,-2.642,0.488,0.48,-0.984,2.991
-15.209,-6.117,0.148,-0.142,-1.535,3.147
-26.022,-9.115,3.646,-1.109,-0.041,1.491
-37.141,-6.333,10.105,-2.243,0.813,-0.903
-44.192,2.571,15.596,-2.98,1.945,-3.566
-39.898,12.024,17.725,-2.781,2.219,-6.121
-29.787,21.651,15.699,-2.145,2.152,-6.642
-20.082,27.165,10.674,-0.869,0.772,-4.454
-13.068,23.328,4.834,0.652,0.055,-1.635
-8.003,12.258,0.376,1.685,-0.841,0.675
-11.246,1.016,-1.038,1.828,-0.456,2.62
-12.92,-6.557,0.682,1.854,0.48,3.147
-12.794,-10.912,2.018,1.606,0.898,2.791
-9.268,-11.215,0.725,1.194,1.345,2.36
-8.621,-10.283,0.02,1.152,1.501,2.537
-7.906,-9.047,0.792,1.083,1.481,2.816
-7.833,-7.177,1.706,0.986,1.078,3.054
-6.965,-5.293,2.248,0.789,1.039,3.421
-6.366,-3.756,2.467,0.595,0.59,3.758
-6.235,-2.096,1.581,0.287,0.339,4.0
-9.53,-0.897,0.199,-0.103,0.078,4.056
-14.882,-2.151,-0.523,-0.699,-0.565,3.36
-23.28,-4.788,-0.326,-1.473,-0.538,1.436
-34.068,-3.982,4.931,-2.404,0.104,-1.289
-41.834,2.5,12.318,-3.249,0.542,-4.018
-39.82,12.122,16.218,-3.873,0.533,-6.453
-31.234,20.366,14.865,-3.363,0.806,-6.682
-23.963,26.641,13.314,-1.994,0.029,-4.863
-18.019,24.859,9.919,-0.184,-0.734,-2.237
-11.034,15.82,4.895,1.149,-0.897,-0.047
-10.707,3.614,2.062,2.265,-0.705,1.881
-14.907,-5.414,3.452,2.501,0.328,2.309
-13.68,-10.792,4.476,2.053,1.492,1.933
-9.775,-11.192,3.135,1.412,2.247,1.774
-9.068,-10.447,2.539,1.144,2.426,2.159
-8.164,-9.369,2.885,0.992,2.555,2.586
-6.967,-8.078,3.279,0.83,1.937,2.997
-6.933,-6.803,3.316,0.71,1.246,3.296
-6.057,-5.291,3.464,0.518,0.337,3.415
-5.161,-3.226,2.405,0.274,-0.611,3.484
-6.683,-1.301,1.645,-0.124,-1.331,3.774
-14.514,-1.2,2.011,-0.791,-1.636,3.781
-24.529,-4.493,3.907,-1.683,-0.741,2.159
-35.874,-3.804,10.617,-2.617,0.926,-0.427
-45.523,5.288,19.557,-3.465,2.28,-3.072
-44.436,13.81,24.063,-3.841,2.831,-5.716
-33.836,21.503,22.139,-3.379,2.794,-6.748
-24.877,29.066,18.643,-2.082,1.483,-5.318
-17.385,28.148,11.611,-0.418,-0.109,-2.797
-8.73,16.49,3.284,0.949,-0.683,-0.474
-9.385,5.478,-0.863,1.935,-0.641,1.762
-13.621,-3.628,0.264,2.323,-0.02,2.651
-13.122,-9.472,1.806,2.138,0.869,2.663
-10.257,-11.269,2.019,1.659,1.254,2.518
-8.939,-10.763,1.895,1.477,1.274,2.751
-8.586,-9.862,2.176,1.42,1.178,2.945
-8.073,-9.041,2.824,1.354,0.918,3.045
-8.751,-7.883,3.011,1.185,0.502,2.954
-7.901,-6.51,3.174,0.929,0.424,2.866
-6.986,-4.352,2.863,0.508,-0.136,2.846
-6.504,-2.0,2.207,-0.012,-0.48,3.185
-11.584,0.027,3.003,-0.644,-1.248,3.531
-18.998,-5.359,3.661,-1.455,-0.62,2.516
-28.966,-7.061,7.713,-2.607,0.086,0.228
-40.773,-2.094,15.942,-3.388,1.837,-2.308
-44.003,4.483,21.318,-3.663,2.496,-5.077
-36.574,10.154,18.959,-3.269,2.804,-6.711
-28.466,20.276,16.033,-2.304,1.995,-5.644
-20.703,22.479,11.11,-0.598,1.038,-2.922
-11.9,15.475,3.752,0.772,-0.325,-0.392
-9.364,6.155,-0.802,1.686,-0.654,2.032
-12.795,-2.095,0.61,2.103,-0.028,3.395
-13.938,-8.191,3.114,2.271,0.619,3.425
-13.207,-10.458,3.702,2.126,1.214,2.893
-11.301,-10.664,3.528,2.037,1.724,2.594
-9.67,-10.494,3.718,1.836,2.092,2.475
-8.419,-9.353,3.905,1.534,1.797,2.395
-8.146,-7.946,3.479,1.181,1.224,2.26
-6.351,-6.287,3.575,0.734,0.934,2.302
-4.657,-4.318,2.877,0.141,0.236,2.537
-4.475,-2.027,1.528,-0.39,-0.307,3.048
-9.185,-0.335,0.568,-0.879,-0.519,3.397
-15.826,-1.849,0.319,-1.461,-0.601,2.934
-22.745,-4.357,2.284,-1.891,-0.275,1.225
-33.864,-4.03,8.906,-2.532,0.334,-1.24
-42.257,2.743,17.515,-3.314,0.591,-4.056
-38.311,10.266,19.92,-3.837,0.498,-6.549
-30.513,18.859,16.532,-3.158,0.267,-6.705
-25.082,23.904,12.777,-1.813,-0.383,-4.905
-18.418,21.352,6.785,-0.18,-0.735,-2.494
-11.559,11.605,-0.386,1.191,-0.464,-0.372
-10.855,1.32,-2.044,2.182,0.304,1.509
-11.521,-6.456,1.796,2.138,1.213,2.063
-10.682,-10.245,4.287,1.437,1.858,2.048
-7.468,-8.894,4.089,0.881,1.956,2.158
-7.825,-8.029,3.812,1.015,1.601,2.625
-8.177,-7.492,4.572,1.317,1.517,3.072
-8.285,-7.252,5.002,1.518,0.986,3.382
-8.342,-6.541,5.084,1.59,0.593,3.508
-8.505,-5.78,4.767,1.488,-0.069,3.46
-7.612,-2.74,3.861,1.232,-0.259,3.538
-8.018,0.696,2.852,1.152,-0.962,3.982
-13.278,-0.417,2.996,0.719,-1.055,3.96
-17.258,-3.527,4.525,-0.141,-0.738,3.192
-25.586,-6.586,9.259,-1.285,0.089,1.165
-35.754,-5.121,18.623,-2.881,1.457,-1.502
-42.369,4.073,25.822,-4.432,2.506,-4.342
-35.537,15.367,25.842,-4.862,2.189,-6.349
-30.604,24.114,21.128,-3.958,1.539,-6.28
-23.472,27.859,15.597,-2.19,0.487,-4.291
-15.301,22.664,6.835,-0.281,-0.447,-2.199
-7.93,9.522,-0.244,1.095,-0.601,-0.099
-9.907,-0.943,-1.622,1.696,0.194,1.66
-10.575,-6.844,0.876,1.508,1.224,2.171
-8.643,-8.864,1.532,0.876,2.203,2.28
-7.107,-7.025,1.325,0.571,1.967,2.866
-7.659,-5.454,1.49,0.586,1.696,3.421
-7.958,-3.957,2.206,0.688,1.34,4.082
-9.201,-2.558,2.483,0.641,0.445,4.618
-10.709,-0.484,2.625,0.568,-0.469,4.754
-9.79,0.572,2.174,0.408,-1.06,4.721
-9.848,3.185,1.77,0.338,-2.119,4.636
-11.854,3.443,1.966,0.448,-2.854,4.363
-16.621,1.871,4.097,0.19,-2.952,3.375
-24.335,-1.347,7.959,-0.507,-1.857,1.463
-32.643,-0.67,16.754,-1.744,-0.437,-1.182
-42.853,7.58,28.479,-3.444,1.807,-3.753
-42.989,17.983,33.361,-4.946,2.711,-6.185
-34.456,26.04,28.05,-4.831,2.81,-7.027
-24.865,31.238,22.597,-3.542,1.531,-5.81
-20.029,29.012,13.971,-1.62,0.087,-3.596
-9.248,17.061,2.385,0.367,-0.795,-1.546
-7.066,4.794,-2.75,1.867,-0.707,0.549
-10.354,-3.515,0.095,2.23,-0.219,1.758
-11.5,-7.797,2.303,1.875,0.872,2.115
-8.155,-7.776,2.432,1.432,1.682,2.507
-9.041,-6.52,3.085,1.37,1.61,3.201
-9.472,-5.565,4.063,1.473,1.725,3.867
-10.195,-4.946,5.464,1.611,1.245,4.37
-10.986,-4.019,5.384,1.68,0.615,4.582
-10.829,-3.251,5.485,1.558,0.292,4.549
-9.205,-2.273,4.768,1.157,-0.262,4.467
-9.999,-0.645,4.497,0.506,-1.817,4.072
-12.866,-0.34,3.736,-0.157,-1.976,3.531
-15.807,-0.561,4.132,-1.071,-1.837,2.696
-21.284,-3.432,7.46,-1.918,-0.765,1.431
-31.404,-5.277,17.452,-3.128,0.885,-1.231
-42.422,1.624,30.163,-4.447,3.707,-3.597
-39.086,13.815,36.616,-4.977,4.435,-5.723
-32.901,21.606,33.705,-4.383,4.111,-6.415
-27.643,27.607,28.554,-2.979,2.71,-5.634
-21.052,27.882,18.484,-0.969,1.111,-3.191
-8.985,18.072,5.442,1.023,-0.06,-0.927
-9.575,4.525,-0.918,2.242,-0.119,1.345
-12.577,-4.693,1.731,2.611,0.74,2.544
-12.29,-9.836,4.012,2.27,1.557,2.724
-9.242,-10.607,4.686,1.798,2.088,2.642
-8.876,-9.83,4.762,1.679,1.824,2.805
-8.508,-8.971,4.836,1.638,1.632,2.868
-7.841,-7.959,4.653,1.659,1.147,2.951
-7.718,-6.459,4.487,1.617,0.686,3.121
-7.666,-4.48,4.014,1.504,-0.021,3.214
-7.451,-2.89,3.349,1.292,-0.86,3.262
-7.881,-1.193,2.864,1.011,-1.176,3.644
-12.528,-1.148,2.981,0.36,-1.196,3.778
-19.779,-4.499,3.726,-0.498,-0.892,2.826
-29.61,-6.855,9.28,-1.732,0.44,0.37
-40.717,-2.003,18.228,-3.019,2.212,-2.103
-43.537,5.001,23.831,-3.877,2.969,-4.821
-36.642,13.072,23.536,-3.887,2.708,-6.54
-27.972,21.412,20.612,-2.988,2.005,-6.038
-19.721,25.018,14.436,-1.183,0.32,-3.443
-11.244,19.162,6.097,0.589,-0.699,-0.973
-8.451,11.217,0.803,1.876,-1.161,1.655
-13.37,3.307,1.664,2.714,-0.892,3.533
-17.431,-2.151,4.783,3.013,-0.14,3.963
-17.982,-5.196,6.628,2.865,0.766,3.621
-17.215,-6.439,7.623,2.76,1.336,3.262
-17.14,-8.238,8.281,2.615,1.847,2.545
-14.411,-9.598,7.791,2.396,2.236,1.626
-10.275,-10.027,6.285,1.987,2.069,0.847
-5.832,-8.739,4.614,1.437,1.597,0.553
-2.52,-5.968,2.553,0.827,0.364,0.714
-0.348,-2.549,0.899,0.287,-0.471,1.668
-1.333,0.647,-0.484,-0.204,-1.021,3.003
-7.327,0.613,1.312,-0.678,-1.695,4.214
-21.911,-3.032,4.768,-1.449,-1.494,3.485
-33.459,-2.522,13.237,-2.46,0.668,1.213
-45.927,10.063,22.136,-3.824,1.632,-1.653
-43.981,21.528,27.603,-4.332,2.312,-4.658
-35.34,28.032,24.21,-3.883,2.418,-6.228
-24.288,34.08,20.159,-2.402,1.487,-5.355
-16.904,30.838,12.665,-0.665,0.214,-3.344
-5.229,15.408,3.961,1.15,-0.213,-1.153
-7.53,0.944,-0.647,2.134,-0.494,1.077
-12.711,-5.636,1.118,2.189,0.372,2.086
-11.252,-9.492,2.232,1.714,1.966,2.465
-8.612,-8.292,2.374,1.308,1.982,3.079
-10.132,-8.004,3.448,1.224,1.928,3.456
-9.653,-7.296,3.987,1.197,1.71,3.557
-9.017,-6.688,4.406,1.118,0.998,3.412
-8.565,-5.007,4.0,0.926,0.22,3.144
-6.926,-3.413,3.096,0.665,-0.285,3.129
-5.903,0.138,3.067,0.454,-1.286,3.381
-9.966,2.055,6.512,0.157,-3.057,3.578
-16.263,-1.079,7.889,-0.696,-2.201,3.48
-22.297,-4.223,12.215,-1.678,-0.668,2.22
-33.394,-4.554,22.467,-2.811,0.845,-0.39
-44.404,1.476,32.791,-4.138,2.405,-3.211
-40.883,11.479,33.326,-5.177,4.565,-5.749
-30.749,22.678,28.663,-4.522,3.742,-6.525
-24.436,28.962,23.061,-2.894,2.075,-5.116
-19.213,27.101,14.184,-0.908,0.487,-2.574
-8.54,16.416,4.041,0.735,0.3,-0.353
-7.901,3.259,-0.018,2.032,0.196,1.871
-11.89,-6.243,2.789,2.261,0.715,2.865
-12.573,-11.276,3.974,1.753,1.415,2.931
-8.479,-11.611,3.131,1.148,2.029,2.988
-8.905,-10.395,2.448,0.942,1.741,3.366
-9.071,-9.324,2.133,0.894,1.498,3.561
-8.787,-7.74,2.31,0.827,1.279,3.644
-8.327,-5.415,2.689,0.699,0.891,3.68
-7.046,-2.609,2.445,0.498,0.364,3.74
-7.336,0.24,1.872,0.43,-0.51,3.782
-10.566,1.067,1.624,0.059,-0.829,3.867
-16.76,-1.823,-0.267,-0.678,-0.819,3.386
-24.645,-5.763,-0.283,-1.413,-0.004,1.417
-35.091,-6.481,5.471,-2.163,1.158,-1.242
-45.873,-1.585,13.398,-2.882,2.866,-3.883
-42.959,8.36,17.509,-2.824,3.296,-6.387
-33.328,17.684,17.281,-2.106,2.372,-7.075
-26.177,24.614,15.91,-0.979,0.85,-5.203
-20.18,24.601,10.218,0.506,-0.476,-2.326
-10.849,15.129,3.386,1.683,-1.499,-0.064
-11.007,3.507,-0.079,2.181,-1.591,2.016
-14.974,-4.191,2.021,2.385,-0.506,2.774
-14.4,-8.95,3.304,2.24,0.549,2.436
-10.525,-10.439,3.224,1.849,1.213,1.752
-7.546,-7.898,2.497,1.716,1.326,1.841
-7.387,-6.283,2.75,1.785,1.126,1.991
-6.726,-4.657,3.418,1.885,0.845,2.33
-6.51,-2.58,3.797,2.002,0.387,2.881
-7.482,0.258,4.732,2.123,-0.233,3.46
-10.426,1.0,5.768,2.184,-0.938,3.799
-11.85,0.652,5.87,1.875,-0.729,4.11
-14.891,-2.043,5.931,1.257,-0.983,4.051
-21.631,-7.021,7.858,-0.027,-0.886,2.931
-29.486,-9.387,14.377,-1.814,0.611,0.273
-37.83,-4.162,23.598,-3.743,1.973,-2.418
-40.395,6.59,29.192,-4.989,2.641,-4.959
-33.992,18.107,29.938,-5.257,2.652,-6.657
-25.014,28.116,26.274,-4.32,2.049,-6.128
-17.525,32.139,18.372,-2.192,0.201,-3.322
-12.129,26.724,10.224,0.302,-1.234,-0.521
-10.642,14.897,5.343,2.122,-1.8,1.772
-16.477,4.081,4.871,3.13,-1.135,3.196
-20.563,-3.694,7.089,3.49,0.241,2.986
-19.697,-9.001,8.008,2.95,1.637,1.825
-13.199,-10.429,6.33,2.1,2.882,0.966
-8.473,-9.072,5.11,1.493,3.034,0.829
-5.634,-7.052,4.54,1.076,2.449,1.115
-4.602,-5.031,3.894,0.735,1.233,1.571
-3.555,-2.9,3.442,0.525,0.172,2.297
-3.416,-0.144,2.819,0.371,-0.99,3.171
-5.629,3.099,2.807,0.342,-1.923,4.001
-9.567,4.225,4.018,0.295,-2.95,4.564
-17.907,1.749,6.955,-0.066,-2.11,4.306
-28.08,-0.767,10.542,-1.066,-0.832,2.208
-38.474,1.515,20.022,-2.197,1.016,-0.607
-44.526,9.455,28.17,-3.368,2.624,-3.595
-38.587,18.422,29.648,-4.088,3.75,-6.192
-27.584,26.631,24.094,-3.937,2.801,-6.723
-18.746,31.313,19.097,-2.305,1.197,-4.889
-13.085,26.643,10.41,-0.351,-0.451,-2.745
-6.587,14.142,2.771,1.267,-1.224,-0.65
-9.889,2.302,-0.006,2.276,-1.149,1.21
-13.185,-5.587,2.771,2.705,-0.273,1.77
-12.61,-10.069,4.555,2.297,0.739,1.651
-9.37,-10.183,4.201,1.693,1.358,1.7
-8.534,-9.128,4.519,1.496,1.622,2.08
-7.13,-7.448,5.382,1.464,1.643,2.539
-5.274,-5.055,5.625,1.576,0.916,3.177
-5.06,-2.078,5.813,1.83,0.295,3.874
-5.076,-0.042,6.461,2.049,-0.443,4.495
-7.671,1.455,6.458,1.945,-1.578,4.637
-11.039,1.214,6.892,1.598,-1.969,4.551
-17.562,0.044,8.413,0.873,-1.631,3.901
-24.944,-1.779,13.392,-0.388,-0.359,2.047
-31.498,-0.197,22.525,-2.36,1.146,-0.769
-38.23,9.925,31.906,-4.354,2.988,-3.386
-35.876,21.63,35.61,-5.426,3.603,-5.812
-27.735,30.296,30.142,-5.337,3.459,-6.93
-18.411,34.646,22.802,-3.859,2.635,-5.568
-14.152,32.66,14.91,-1.362,0.715,-2.86
-7.352,19.372,6.654,0.94,-0.013,-0.627
-7.271,6.398,2.405,2.445,-0.1,1.613
-11.476,-3.747,6.308,3.037,0.185,2.864
-14.128,-9.185,8.99,2.731,0.572,2.561
-10.836,-11.544,7.299,2.033,1.476,1.931
-8.232,-9.463,5.507,1.853,1.356,2.047
-6.497,-7.579,4.798,1.88,1.539,2.427
-3.682,-4.128,4.354,2.041,1.251,3.115
-3.129,0.053,3.916,2.257,0.37,4.094
-4.762,3.704,4.812,2.648,-0.238,4.977
-9.215,4.734,6.5,2.586,-0.794,5.313
-15.135,3.378,9.256,1.85,-1.522,4.802
-21.709,-1.392,13.159,0.491,-0.68,3.163
-28.658,-3.576,20.851,-1.796,0.226,0.366
-37.197,-0.04,33.982,-4.188,2.194,-2.595
-38.444,9.316,42.351,-6.248,2.57,-5.28
-35.569,21.548,39.466,-7.441,2.899,-7.268
-27.161,32.102,31.116,-6.193,2.327,-7.066
-19.455,33.877,23.55,-3.372,1.653,-4.971
-13.865,27.5,11.339,-0.596,-0.088,-2.508
-9.829,15.741,2.961,1.683,0.384,-0.163
-9.28,2.822,3.671,3.579,0.886,1.883
-14.489,-5.57,9.296,3.615,1.702,2.639
-15.157,-9.717,10.121,2.679,2.968,2.644
-11.457,-10.593,8.545,1.925,3.45,2.513
-10.368,-10.003,6.981,1.635,3.431,2.613
-8.717,-9.701,6.222,1.401,2.888,2.72
-6.382,-8.821,4.599,1.13,1.529,2.729
-6.031,-6.801,2.449,1.125,-0.029,2.595
-4.614,-5.03,0.865,1.012,-0.022,2.722
-3.12,-3.96,-0.273,0.802,-0.793,2.99
-5.921,-3.369,-0.284,0.431,-1.091,3.773
-17.813,-4.034,4.98,-0.572,-0.49,3.49
-27.804,-5.359,12.408,-1.993,1.2,1.342
-39.577,0.848,22.406,-3.548,1.428,-1.118
-47.602,10.627,30.0,-4.813,2.072,-3.83
-44.781,20.756,29.558,-5.235,2.252,-6.652
-30.732,27.703,21.727,-4.15,2.2,-6.81
-21.398,31.722,13.696,-2.19,0.178,-4.352
-15.531,24.216,5.171,0.071,-0.229,-1.851
-10.368,12.746,-0.743,1.843,-0.324,0.463
-12.163,1.728,0.568,2.894,0.078,2.366
-15.349,-5.7,4.345,2.987,0.501,2.717
-14.717,-10.013,6.644,2.576,1.466,2.456
-9.708,-9.998,6.622,1.968,1.756,2.226
-7.187,-8.558,5.691,1.821,1.528,2.356
-6.457,-7.018,5.284,1.929,1.205,2.682
-5.728,-5.528,4.942,2.074,0.653,3.093
-6.403,-3.557,4.332,2.197,0.27,3.397
-6.736,-2.183,4.573,2.3,-0.406,3.704
-8.358,-1.735,4.526,2.146,-1.132,3.775
-9.247,-1.729,5.252,1.572,-1.132,3.872
-13.354,-2.564,5.771,0.692,-1.079,3.713
-17.501,-4.298,9.123,-0.466,-0.148,2.793
-23.962,-5.453,15.244,-1.85,0.846,0.696
-32.006,-2.0,26.34,-3.7,2.266,-1.819
-38.148,5.977,36.834,-5.438,2.528,-4.38
-38.125,17.219,38.67,-6.819,2.119,-6.654
-32.211,27.948,31.013,-6.337,1.551,-6.883
-23.712,33.234,22.094,-4.232,0.444,-5.402
-18.792,31.067,12.693,-1.259,-0.834,-2.988
-14.108,20.249,4.298,1.419,-0.225,-0.739
-11.032,7.673,3.975,3.556,0.646,1.278
-12.873,-3.754,9.341,3.912,0.902,1.813
-13.909,-9.771,11.863,2.959,1.902,1.886
-9.176,-12.192,10.469,1.793,2.835,1.774
-5.033,-9.159,7.572,1.151,2.485,2.131
-3.757,-6.818,5.812,1.191,1.911,2.75
-3.687,-4.265,5.077,1.505,1.114,3.515
-5.47,-1.96,5.294,1.839,0.237,4.098
-7.215,-0.233,4.855,1.852,-0.443,4.496
-9.536,1.37,4.042,1.515,-1.047,4.589
-11.518,2.458,3.178,0.93,-1.099,4.479
-13.677,2.256,3.506,0.306,-0.711,4.134
-15.428,0.173,4.563,-0.394,-0.646,3.37
-19.225,-2.313,8.636,-1.192,-0.602,1.822
-26.835,-1.989,19.077,-2.808,0.412,-0.877
-33.472,8.808,32.361,-4.412,1.382,-3.434
-34.086,21.367,38.363,-6.0,1.798,-5.741
-27.908,31.12,35.255,-6.325,2.191,-6.785
-21.41,36.739,28.681,-5.318,2.369,-6.14
-13.663,35.649,18.813,-2.826,1.368,-3.711
-7.786,21.948,6.814,-0.571,0.738,-1.559
-5.554,7.498,0.547,1.498,0.679,0.597
-9.572,-2.558,2.057,2.365,0.757,1.876
-12.01,-7.647,4.793,2.297,1.28,2.233
-10.843,-9.369,4.956,1.798,1.92,2.13
-8.227,-7.551,4.611,1.627,2.037,2.555
-7.278,-5.896,5.151,1.795,1.84,3.206
-7.039,-4.044,6.17,1.921,1.473,3.941
-7.244,-2.178,6.383,2.041,0.275,4.36
-8.117,-0.576,6.547,2.176,-0.307,4.586
-8.342,0.227,6.101,2.175,-1.201,4.473
-11.5,0.65,5.604,1.777,-1.319,4.165
-15.943,-0.951,6.041,0.933,-1.057,3.572
-22.2,-3.418,7.49,-0.254,0.168,2.222
-28.059,-3.484,13.564,-1.739,1.194,-0.327
-38.727,0.849,23.639,-3.547,2.871,-2.79
-41.077,11.859,31.147,-4.959,3.091,-5.29
-35.355,22.694,30.129,-5.282,2.667,-7.224
-26.897,30.269,25.229,-4.452,1.638,-7.027
-20.931,32.072,17.156,-2.61,0.394,-4.923
-12.618,25.765,7.7,-0.278,-0.666,-2.62
-8.796,12.705,0.628,1.467,-0.741,-0.549
-10.392,1.358,0.679,2.52,-0.201,1.23
-12.573,-5.905,4.121,2.661,0.629,1.858
-11.982,-9.984,5.927,2.073,1.423,1.895
-9.166,-9.751,5.317,1.382,2.006,1.927
-7.526,-8.555,5.123,1.349,1.95,2.364
-6.896,-7.425,5.298,1.449,1.755,2.679
-5.179,-5.829,5.164,1.609,1.233,3.085
-5.001,-3.082,4.636,1.84,0.357,3.365
-5.914,-0.913,4.508,2.057,-0.404,3.624
-7.262,0.803,4.76,1.874,-0.86,3.822
-9.491,2.531,4.951,1.404,-1.102,4.074
-14.22,1.903,6.838,0.53,-1.102,4.083
-18.681,-0.424,8.034,-0.676,-1.173,3.461
-23.658,-3.395,12.269,-1.86,0.224,1.984
-29.584,-2.882,22.431,-3.499,1.648,-0.722
-36.483,6.453,33.788,-5.072,2.884,-3.364
-33.84,19.515,37.662,-5.868,3.591,-5.827
-26.237,28.194,35.102,-5.53,3.728,-6.859
-20.185,34.016,28.126,-4.377,2.23,-6.12
-14.425,33.215,16.601,-2.108,0.912,-3.621
-7.952,20.868,5.782,0.271,-0.114,-1.337
-8.423,6.267,0.531,2.006,-0.478,0.768
-12.536,-3.254,2.012,2.814,0.347,1.975
-12.696,-9.141,4.909,2.763,1.218,2.21
-10.813,-11.039,5.455,2.12,1.731,2.052
-7.288,-8.627,4.563,1.683,1.878,2.423
-5.156,-5.751,4.329,1.8,1.606,3.189
-4.582,-2.254,5.147,2.045,1.06,4.226
-5.96,1.405,5.854,2.393,0.138,5.091
-8.13,3.873,7.566,2.764,-0.701,5.528
-11.374,4.205,7.857,2.885,-1.574,5.348
-14.115,3.354,9.701,2.326,-1.903,4.77
-18.437,1.154,10.677,1.176,-1.802,3.679
-21.674,-2.131,13.262,-0.37,-0.726,2.177
-25.662,-3.157,19.291,-2.374,0.659,-0.05
-32.622,0.999,31.598,-4.562,3.063,-2.524
-36.902,13.292,39.65,-6.271,4.153,-4.817
-32.592,25.067,40.05,-6.96,4.181,-6.742
-25.787,33.912,32.264,-5.922,3.48,-6.845
-19.988,36.381,23.651,-3.428,2.345,-5.353
-14.396,29.709,12.878,-0.586,0.511,-3.098
-7.964,15.477,4.351,1.476,0.497,-1.032
-7.38,2.574,3.049,3.022,0.538,1.074
-9.863,-6.402,7.955,3.19,0.908,2.046
-8.787,-10.04,9.389,2.459,1.422,2.709
-4.874,-7.812,8.285,1.923,1.555,3.419
-5.765,-4.961,8.177,2.312,0.887,4.392
-6.766,-1.89,8.751,2.803,0.615,5.235
-8.675,0.729,9.986,3.344,-0.515,5.565
-12.245,1.563,10.425,3.707,-1.344,5.137
-14.283,0.075,10.6,3.334,-1.074,4.418
-15.21,-1.798,10.074,2.071,-1.554,3.388
-18.61,-3.407,10.449,0.514,-1.032,2.187
-20.658,-5.038,13.901,-1.216,0.686,0.731
-24.819,-3.546,22.543,-3.41,2.4,-1.335
-32.212,4.884,33.488,-5.342,3.237,-3.58
-33.245,15.702,38.708,-6.33,4.32,-5.59
-26.705,24.907,36.537,-6.214,4.001,-6.85
-20.839,30.134,28.856,-5.155,2.95,-6.5
-14.029,30.045,18.746,-2.961,1.663,-4.491
-6.975,21.064,7.688,-0.519,0.139,-2.222
-4.92,10.006,2.031,1.439,-0.358,-0.216
-7.77,-0.829,2.795,2.582,-0.164,1.316
-10.032,-6.904,5.551,2.965,0.221,1.919
-9.724,-9.106,6.531,2.899,0.909,2.286
-7.192,-7.305,6.228,2.882,1.586,2.958
-6.373,-5.114,6.587,3.245,1.723,4.092
-6.784,-1.152,8.122,3.493,1.548,5.327
-8.97,1.833,8.913,3.73,0.59,5.995
-11.422,2.902,9.951,3.68,-0.162,6.031
-13.314,2.354,10.331,3.071,-1.225,5.395
-16.836,0.906,11.011,1.93,-2.292,4.248
-21.237,-1.878,12.708,0.575,-1.843,2.527
-25.558,-3.787,19.45,-1.514,-0.112,0.232
-32.894,-0.271,32.932,-3.836,1.188,-2.392
-39.947,11.049,46.778,-5.652,2.772,-4.698
-37.448,23.323,49.644,-6.991,3.765,-6.691
-31.03,33.072,43.234,-6.545,3.491,-7.414
-22.361,37.27,33.994,-4.356,2.365,-6.272
-14.431,33.643,19.567,-1.421,0.647,-4.192
-7.295,20.507,5.604,1.116,0.358,-2.044
-6.615,6.433,2.049,3.281,0.281,0.077
-8.273,-4.092,5.02,3.724,0.372,1.297
-10.271,-9.576,6.659,3.184,0.854,1.777
-8.805,-10.473,6.426,2.355,2.192,2.034
-7.025,-8.345,6.428,2.146,2.032,2.411
-6.631,-6.675,6.577,2.301,2.077,2.866
-6.42,-4.486,7.393,2.649,1.784,3.475
-7.109,-2.664,8.078,2.914,1.133,3.972
-7.893,-1.596,7.831,2.965,0.299,4.319
-8.76,-0.691,6.965,2.514,0.073,4.655
-11.228,0.409,6.164,1.639,0.05,4.785
-16.383,-0.603,6.336,0.516,-0.413,4.163
-22.178,-3.43,7.602,-0.722,-0.177,2.58
-29.807,-3.691,14.401,-2.493,0.692,-0.078
-37.957,0.7,26.779,-4.369,1.42,-2.939
-43.233,12.073,36.797,-5.929,0.962,-5.646
-39.653,23.488,36.204,-6.829,0.95,-7.451
-31.472,33.806,28.706,-5.96,0.827,-6.999
-23.157,36.306,20.79,-3.39,-0.138,-4.831
-18.306,29.829,11.076,-0.424,-0.78,-2.319
-11.388,15.526,3.389,1.847,0.128,-0.059
-10.281,2.543,4.429,3.555,0.892,1.961
-13.001,-7.089,10.474,3.661,1.498,2.64
-13.92,-11.789,12.249,2.787,2.505,2.699
-9.985,-12.261,10.22,1.806,3.101,2.456
-8.332,-11.12,7.958,1.55,2.802,2.519
-7.435,-10.006,6.605,1.502,2.59,2.594
-5.968,-8.609,5.89,1.378,2.017,2.649
-4.385,-6.413,4.583,1.158,1.14,2.737
-3.487,-3.542,2.93,0.931,0.313,3.087
-4.376,-1.123,2.353,0.644,-0.319,3.595
-7.745,-0.042,2.642,0.229,-0.953,4.014
-13.435,-2.1,6.172,-0.39,-2.627,3.747
-22.106,-4.419,11.963,-1.415,-1.525,2.784
-29.136,-4.56,23.644,-3.097,0.212,0.164
-38.755,3.927,34.772,-4.826,1.554,-2.668
-36.81,13.953,39.379,-5.916,2.719,-5.394
-27.905,23.748,34.135,-5.708,4.307,-6.252
-18.731,30.135,26.568,-4.421,2.903,-5.699
-14.525,31.02,15.698,-1.899,0.628,-3.301
-7.585,20.284,6.08,0.682,-0.466,-1.002
-7.861,8.436,2.244,2.457,-1.028,1.142
-13.308,-0.851,4.531,3.106,-0.747,1.921
-14.608,-7.069,7.673,3.16,0.222,1.942
-12.91,-10.465,7.65,2.613,1.084,1.557
-9.431,-10.543,6.516,2.099,1.993,1.524
-6.79,-9.563,6.006,1.83,2.079,1.686
-4.519,-7.734,5.765,1.631,1.49,2.054
-3.907,-5.095,4.455,1.536,0.659,2.534
-3.001,-2.168,4.221,1.452,0.452,3.413
-4.293,1.395,4.517,1.189,-0.691,4.217
-8.595,4.175,5.042,0.882,-2.032,4.669
-13.76,3.814,6.666,0.505,-1.316,4.936
-21.57,1.272,8.953,-0.477,-0.516,4.064
-29.436,-0.463,15.284,-1.617,0.799,1.491
-38.047,2.462,26.438,-3.182,2.426,-1.578
-39.757,12.002,35.694,-4.763,4.849,-4.337
-31.339,23.324,35.493,-5.243,4.845,-6.475
-20.073,30.268,31.396,-4.428,3.995,-6.45
-13.814,34.037,24.879,-2.837,1.812,-4.664
-7.745,28.501,13.877,-0.526,0.408,-2.306
-4.52,15.74,3.978,1.647,-0.468,-0.047
-10.041,3.11,2.238,2.807,-0.648,1.589
-15.535,-3.916,4.687,3.204,0.226,1.898
-14.371,-9.041,5.166,2.937,1.485,1.686
-10.661,-10.149,4.705,2.396,2.034,1.428
-7.653,-9.405,4.454,2.036,1.915,1.602
-5.102,-6.928,4.48,1.855,1.434,2.083
-4.471,-4.324,4.977,1.736,0.838,2.832
-5.047,-1.621,5.337,1.644,-0.095,3.55
-6.221,1.331,5.108,1.782,-1.046,4.129
-8.171,3.001,5.16,1.876,-1.648,4.624
-12.427,2.833,7.736,1.544,-1.976,4.946
-19.882,0.378,10.267,0.712,-1.673,4.374
-25.473,-3.14,15.085,-0.628,0.22,2.562
-33.601,-1.813,25.526,-2.59,1.923,-0.118
-42.288,9.098,37.41,-4.288,3.33,-3.045
-40.843,20.687,38.814,-5.451,4.278,-5.881
-28.598,30.346,33.106,-5.141,3.911,-6.779
-21.103,36.544,25.552,-3.621,2.021,-5.539
-15.319,34.603,16.302,-1.113,0.242,-2.95
-8.525,20.067,5.357,0.764,-0.503,-0.622
-7.807,6.194,2.072,2.156,-0.58,1.598
-13.765,-3.757,4.783,2.429,-0.161,2.331
-15.137,-8.955,6.725,2.111,0.914,2.088
-11.614,-10.35,4.786,1.366,1.789,1.505
-8.126,-7.479,3.699,1.251,2.201,1.699
-6.892,-5.43,3.732,1.432,2.027,2.089
-4.534,-2.805,3.866,1.804,1.305,2.807
-4.355,-0.371,4.454,2.182,0.674,3.862
-5.067,1.536,5.516,2.321,-0.05,4.789
-7.598,3.289,5.76,2.033,-1.429,5.138
-9.834,5.664,6.503,1.529,-2.228,5.486
-17.122,5.168,7.52,0.599,-1.741,5.603
-22.804,2.241,9.66,-0.349,-0.564,4.265
-29.455,0.535,15.178,-1.607,0.73,1.578
-37.134,3.966,27.747,-3.146,3.161,-1.292
-43.354,13.953,36.856,-4.387,4.893,-4.252
-36.758,24.609,39.184,-5.119,5.026,-6.991
-27.516,34.299,33.773,-4.95,3.802,-7.121
-19.123,38.537,26.062,-3.469,2.507,-5.21
-13.143,34.013,14.542,-1.008,0.099,-2.715
-6.827,18.869,5.975,1.029,-0.404,-0.489
-7.474,6.29,3.476,2.55,-0.578,1.573
-12.523,-3.888,6.91,3.115,-0.219,2.101
-13.851,-8.736,8.22,2.94,0.597,1.897
-9.429,-9.976,6.5,2.364,1.782,1.842
-7.043,-6.741,5.369,2.104,1.388,2.374
-5.537,-3.692,4.776,2.216,1.205,3.26
-4.907,1.398,5.862,2.456,0.675,4.416
-6.375,4.328,7.253,2.656,-0.132,5.382
-9.019,6.102,8.66,2.486,-1.188,5.705
-11.171,6.777,8.461,2.032,-1.979,5.489
-14.718,6.22,8.268,1.355,-1.715,4.911
-17.648,3.314,7.877,0.447,-1.536,3.656
-20.632,1.674,9.612,-0.564,-0.462,2.025
-22.957,1.866,15.347,-1.647,1.204,-0.014
-25.877,5.914,25.382,-2.952,3.232,-2.557
-29.122,16.746,35.599,-4.318,4.2,-4.926
-24.989,29.743,39.296,-5.323,4.706,-6.735
-17.084,37.983,34.699,-5.39,4.161,-7.113
-12.131,40.331,25.389,-4.265,2.974,-6.248
-8.905,34.882,15.597,-2.244,1.665,-4.152
-2.985,20.944,5.789,-0.538,0.804,-2.363
-3.139,6.144,0.46,1.148,0.297,-0.414
-6.408,-3.886,1.842,2.034,0.126,0.762
-6.939,-8.147,3.757,2.271,0.412,1.541
-5.205,-7.344,3.213,2.248,0.357,2.002
-4.86,-3.524,3.348,2.985,0.363,3.0
-5.499,0.673,5.911,3.597,0.346,4.094
-8.213,4.185,8.603,4.213,0.196,4.842
-9.862,6.421,11.367,4.296,-0.327,5.446
-12.727,7.816,12.235,4.101,-0.758,5.509
-14.127,6.746,13.211,3.225,-1.329,5.387
-17.569,4.756,11.974,2.076,-1.491,4.707
-17.89,1.973,11.532,0.685,-1.165,3.703
-20.18,0.628,12.516,-0.448,-0.244,2.164
-20.632,1.179,19.138,-1.72,1.695,0.251
-24.564,8.435,29.853,-3.303,2.982,-2.413
-25.839,24.341,41.312,-4.865,4.291,-4.777
-22.224,40.857,42.624,-6.185,4.781,-6.608
-13.326,48.142,34.428,-5.506,4.794,-6.918
-7.292,46.59,26.174,-3.914,3.059,-5.636
-5.679,36.248,14.995,-1.976,0.999,-3.328
-1.309,18.939,3.243,0.127,0.444,-1.215
-2.248,1.773,0.295,2.224,-0.172,0.837
-7.614,-7.37,5.349,2.471,-0.618,1.842
-9.71,-8.616,6.254,2.043,-0.13,2.212
-5.182,-5.132,5.211,2.283,1.086,2.524
-3.987,-2.582,5.512,2.676,0.575,3.309
-4.324,1.486,6.829,3.042,0.244,4.231
-5.574,5.707,8.514,3.369,-0.486,4.931
-7.417,8.757,9.641,3.558,-0.779,5.414
-9.501,10.77,11.454,3.225,-1.386,5.453
-11.896,10.925,12.23,2.634,-2.24,4.926
-14.449,8.326,12.57,1.889,-1.633,4.078
-16.261,5.506,13.863,0.842,-0.432,2.912
-20.05,3.688,19.095,-0.722,0.873,0.775
-24.64,8.836,29.599,-2.796,2.781,-1.884
-26.733,23.153,41.355,-4.701,4.435,-4.255
-23.962,37.091,45.668,-6.467,4.76,-6.381
-15.572,45.689,38.02,-6.585,4.378,-7.072
-7.532,47.094,29.122,-4.859,3.166,-5.911
-4.698,38.101,18.75,-2.151,0.761,-3.818
-1.766,21.724,6.565,0.057,0.398,-1.939
-1.209,7.583,0.98,2.518,0.207,0.406
-7.853,-2.501,7.498,3.798,0.249,1.811
-12.98,-7.313,11.012,3.708,0.677,1.963
-10.993,-8.248,9.844,3.158,2.351,1.473
-9.323,-8.529,9.419,2.945,2.553,1.203
-8.31,-9.169,9.867,2.414,2.398,0.687
-5.729,-7.642,8.659,1.608,1.959,0.424
-2.667,-4.324,6.482,1.116,1.258,0.755
-1.156,-0.544,4.736,0.964,0.597,1.996
-1.432,2.793,4.103,0.971,-0.173,3.7
-6.121,5.882,5.981,1.057,-1.267,5.061
-15.678,5.339,9.87,0.951,-1.349,5.658
-24.125,0.608,15.436,-0.216,0.262,4.531
-31.973,0.902,26.545,-2.222,1.347,1.686
-38.192,12.09,41.542,-4.189,2.991,-1.626
-37.567,20.822,44.739,-6.14,3.987,-4.817
-25.18,30.641,36.546,-6.466,4.241,-6.544
-16.353,37.919,29.427,-4.631,2.438,-6.204
-12.142,34.645,20.911,-1.804,1.104,-4.087
-6.563,19.08,6.827,0.229,0.235,-2.116
-4.36,6.398,1.276,2.376,0.419,0.032
-9.048,-4.677,5.608,3.17,1.093,1.273
-9.708,-9.125,8.272,2.634,2.263,2.12
-6.699,-8.287,7.061,2.083,2.82,2.572
-6.394,-6.837,7.036,2.295,2.467,3.228
-5.859,-4.744,7.484,2.379,2.165,3.763
-5.025,-2.587,6.916,2.363,1.395,4.442
-5.929,0.338,7.007,2.209,0.311,5.011
-7.384,3.004,6.974,1.883,-0.572,5.396
-11.701,5.152,7.435,1.408,-1.295,5.33
-16.167,3.725,9.529,0.849,-1.678,4.689
-24.041,0.549,14.208,-0.287,-1.142,2.805
-31.681,0.115,25.257,-2.224,0.385,-0.174
-37.662,9.828,38.93,-4.176,1.615,-3.129
-37.403,20.949,45.675,-5.98,2.489,-5.69
-30.176,32.498,41.994,-6.882,2.967,-7.047
-21.256,39.976,34.163,-5.912,2.244,-6.773
-13.577,40.27,22.115,-3.301,0.876,-4.959
-7.233,26.83,8.794,-0.717,0.287,-2.749
-4.257,12.226,1.577,1.461,0.276,-0.542
-7.498,-0.6,2.886,2.805,0.577,0.98
-9.019,-7.428,6.25,2.911,1.303,1.957
-8.308,-9.977,6.248,2.473,2.12,2.582
-7.812,-9.15,6.564,2.25,2.412,2.947
-6.674,-8.674,6.974,2.296,2.176,3.217
-6.175,-6.636,7.009,2.273,1.248,3.38
-5.749,-4.378,6.316,2.366,0.763,3.728
-5.163,-2.58,6.241,2.22,0.233,4.273
-4.772,0.884,5.146,1.677,-0.574,4.851
-9.892,5.497,5.287,1.357,-1.326,5.207
-13.356,5.723,6.436,0.775,-1.138,5.085
-19.922,4.263,8.196,-0.214,-1.02,3.927
-25.72,3.119,14.22,-1.329,0.23,1.628
-34.217,4.426,25.189,-2.978,1.79,-1.523
-34.473,14.782,36.3,-4.693,3.315,-4.357
-32.581,26.384,38.436,-6.114,3.989,-6.604
-21.937,34.918,31.768,-5.751,4.098,-6.983
-15.1,36.575,24.42,-4.389,2.463,-5.838
-9.835,31.285,13.742,-2.114,0.58,-3.836
-4.666,16.111,1.366,-0.219,0.362,-1.761
-2.544,3.076,-2.197,1.757,0.401,0.566
-7.263,-5.851,3.102,2.34,0.454,1.901
-9.989,-8.51,5.358,2.327,1.326,2.494
-6.579,-8.531,5.599,2.089,2.541,2.985
-6.694,-7.558,6.372,2.228,2.076,3.455
-7.394,-7.202,6.86,2.186,1.737,3.62
-6.804,-5.725,6.639,2.05,1.351,3.709
-5.575,-4.096,5.745,1.749,0.697,3.978
-5.067,-1.309,4.708,1.424,-0.229,4.338
-7.18,1.179,4.373,1.049,-1.027,4.681
-14.58,2.489,5.481,0.594,-1.463,4.563
-23.403,-1.565,6.043,0.082,-0.539,3.254
-32.809,-1.926,11.74,-0.965,0.25,0.561
-44.52,6.106,21.673,-2.397,1.805,-2.293
-47.463,12.832,27.237,-3.642,2.379,-5.18
-39.404,21.315,25.953,-4.424,2.538,-7.062
-29.252,29.908,22.392,-4.213,1.162,-6.94
-20.982,32.14,15.773,-2.761,-0.259,-5.017
-11.236,21.506,7.116,-0.66,-1.615,-2.846
-6.979,11.018,1.545,0.87,-1.683,-0.796
-7.986,0.412,1.013,2.165,-1.361,0.782
-10.105,-5.51,3.761,2.681,-0.647,1.549
-8.993,-9.027,5.109,2.656,0.525,1.911
-7.895,-8.379,4.905,2.424,0.988,2.206
-7.296,-7.195,5.722,2.71,1.312,2.622
-6.412,-5.335,6.272,2.996,1.419,3.048
-5.163,-3.227,6.831,3.284,1.321,3.642
-5.532,-0.845,7.681,3.399,0.644,4.211
-6.882,0.872,8.633,3.409,-0.496,4.389
-11.053,1.35,9.317,3.084,-1.0,4.133
-15.171,-0.356,10.944,2.319,-1.418,3.382
-18.871,-4.075,13.25,0.894,-1.219,2.16
-25.085,-7.199,18.777,-1.204,-0.217,0.18
-32.234,-6.04,28.814,-3.531,1.814,-2.464
-34.005,4.279,36.064,-5.626,2.525,-4.673
-30.954,16.053,35.537,-6.604,2.68,-6.108
-26.482,25.239,29.62,-5.883,2.222,-6.244
-20.515,29.643,21.983,-3.644,1.311,-5.165
-13.732,26.621,11.14,-1.033,0.196,-2.786
-8.815,14.369,2.967,1.212,0.117,-0.561
-9.49,2.141,1.77,2.625,0.341,1.162
-11.634,-6.15,5.439,2.786,0.996,1.802
-11.456,-10.213,6.432,2.17,1.603,1.8
-9.08,-10.861,5.411,1.524,2.154,1.551
-7.087,-9.444,4.413,1.216,2.292,1.677
-6.202,-8.38,4.325,1.21,2.169,1.929
-5.269,-7.249,4.189,1.282,1.68,2.082
-4.684,-5.859,4.113,1.387,1.032,2.302
-3.719,-4.144,3.532,1.474,0.469,2.735
-3.857,-2.184,3.205,1.488,-0.399,3.253
-4.78,0.627,3.543,1.283,-1.228,3.921
-10.218,2.628,4.265,1.106,-1.462,4.685
-17.168,0.975,7.3,0.49,-0.858,4.661
-24.695,-2.841,11.326,-0.572,-0.071,2.973
-34.705,-2.262,19.393,-2.252,1.218,0.103
-41.623,6.361,27.893,-3.769,2.994,-2.85
-37.675,15.576,30.952,-4.885,3.396,-5.723
-27.913,24.002,25.915,-4.766,2.962,-6.557
-20.308,30.378,20.7,-3.709,1.768,-5.437
-13.751,29.332,13.375,-1.583,0.357,-3.077
-6.732,17.069,4.986,0.243,-0.526,-0.925
-6.654,5.383,1.003,1.574,-0.784,1.187
-11.687,-3.088,3.222,2.141,-0.58,1.775
-13.221,-7.777,4.487,2.212,0.064,1.629
-10.567,-9.798,3.606,1.878,0.908,1.234
-8.76,-8.538,2.801,1.736,1.39,1.296
-7.918,-7.999,3.272,1.759,1.643,1.436
-6.49,-7.248,3.951,1.715,1.544,1.637
-5.808,-5.933,4.291,1.654,1.146,1.886
-4.942,-4.326,3.953,1.696,0.872,2.274
-4.548,-2.601,3.663,1.685,0.491,2.884
-3.685,0.61,2.729,1.43,0.05,3.688
-4.833,5.432,3.69,1.199,-1.112,4.675
-11.681,7.071,5.996,1.183,-1.78,5.268
-16.537,4.744,9.626,0.701,-1.295,4.65
-20.358,1.49,13.236,-0.239,-1.193,2.867
-27.049,-0.808,21.459,-1.757,-0.288,0.094
-34.026,2.36,31.39,-3.635,1.712,-2.995
-34.947,11.792,37.035,-5.676,2.72,-5.689
-31.7,24.819,35.5,-6.895,2.186,-7.177
-26.383,32.938,28.215,-6.347,1.732,-7.027
-19.533,35.261,18.785,-4.316,0.82,-5.47
-12.713,27.646,8.5,-1.771,0.048,-3.152
-6.033,13.849,1.441,0.351,0.173,-1.028
-6.158,0.173,-0.336,1.981,0.409,0.711
-8.975,-7.672,3.589,2.291,1.081,1.489
-9.263,-11.487,5.568,1.827,2.076,1.845
-7.031,-11.126,4.608,1.139,2.548,2.089
-6.707,-8.101,4.018,1.102,2.393,2.667
-6.457,-6.075,4.714,1.205,2.544,3.41
-5.937,-4.575,5.046,1.352,2.136,4.101
-6.571,-3.223,4.896,1.605,0.718,4.297
-7.793,-2.824,4.324,1.939,-0.187,4.143
-6.916,-2.513,3.727,1.868,-0.401,4.07
-6.806,-0.366,2.866,1.521,-1.021,4.07
-9.139,2.047,2.53,1.014,-0.709,4.139
-12.22,3.061,2.42,0.112,-0.298,4.019
-17.562,2.331,3.266,-0.737,0.383,3.226
-23.394,0.58,6.704,-1.628,0.503,1.057
-32.424,2.408,15.25,-2.979,1.411,-1.671
-38.715,10.422,23.357,-4.122,1.326,-4.4
-38.326,18.847,26.621,-4.894,1.643,-6.673
-28.915,26.921,23.611,-4.865,1.309,-7.182
-20.749,30.544,18.699,-3.907,0.798,-5.851
-14.718,27.372,11.736,-1.936,-0.907,-3.708
-7.306,15.244,4.003,-0.315,-0.938,-1.748
-5.022,4.311,0.305,1.202,-0.895,0.315
-10.276,-4.835,2.5,1.842,-0.529,1.255
-13.761,-8.387,4.055,1.791,0.524,1.558
-10.483,-9.803,2.936,1.387,2.279,1.638
-9.322,-8.198,3.129,1.277,2.866,2.173
-8.94,-7.427,4.415,1.298,3.252,2.673
-7.093,-6.446,5.236,1.346,2.954,3.073
-5.707,-5.193,5.272,1.414,2.215,3.37
-4.282,-3.744,4.817,1.532,1.269,3.67
-3.647,-2.628,3.751,1.63,0.029,3.914
-3.755,-0.654,2.782,1.578,-0.91,4.197
-5.201,1.834,2.888,1.375,-2.105,4.551
-10.392,3.047,5.527,0.992,-2.581,4.792
-17.791,1.856,9.658,0.208,-2.282,4.317
-24.289,-1.749,16.916,-1.184,-1.198,2.337
-33.687,0.234,30.314,-3.162,0.383,-0.509
-40.118,9.798,42.39,-5.019,1.917,-3.308
-37.416,20.288,44.557,-6.734,2.729,-5.895
-27.969,29.739,37.215,-6.68,2.599,-6.846
-20.91,36.04,28.522,-4.997,1.514,-5.96
-12.999,32.931,16.366,-2.275,0.22,-3.805
-6.371,18.921,4.84,0.03,0.077,-1.689
-5.751,5.492,0.615,2.198,0.084,0.396
-9.685,-4.881,4.568,2.966,0.496,1.383
-11.586,-9.957,6.711,2.674,1.398,1.941
-9.883,-11.348,5.885,1.992,2.381,2.111
-8.514,-9.587,5.146,1.758,2.62,2.464
-7.479,-8.391,5.521,1.717,2.763,2.855
-6.084,-7.049,5.645,1.652,2.301,3.206
-5.715,-5.596,5.529,1.67,1.238,3.243
-5.585,-4.121,4.748,1.697,0.382,3.213
-5.111,-2.498,3.536,1.656,-0.178,3.265
-4.558,-0.341,2.935,1.407,-1.089,3.431
-7.397,2.028,4.013,1.147,-2.131,3.579
-10.127,2.275,6.144,0.721,-2.99,3.716
-14.276,1.637,9.381,0.049,-2.233,3.635
-18.471,-1.657,15.564,-1.133,-1.166,2.711
-25.724,-3.069,24.875,-2.854,0.723,0.42
-31.53,4.896,36.746,-4.693,2.678,-2.162
-32.16,16.409,42.073,-6.1,4.294,-4.539
-25.244,26.614,38.132,-6.388,3.942,-5.931
-19.042,33.565,29.874,-5.233,2.865,-5.781
-13.135,34.545,20.931,-2.879,1.247,-3.771
-6.886,22.316,8.794,-0.548,0.469,-1.413
-4.439,9.103,1.75,1.343,0.437,0.789
-8.834,-2.504,3.046,2.411,0.522,2.001
-11.943,-8.611,6.35,2.524,1.251,2.347
-11.115,-10.963,5.649,2.052,2.044,2.091
-8.775,-8.742,4.629,1.809,2.576,2.2
-8.196,-7.764,4.886,1.776,2.497,2.48
-6.655,-5.969,4.984,1.656,1.861,2.76
-6.314,-3.915,4.187,1.707,0.89,2.987
-5.483,-1.971,3.752,1.812,0.307,3.387
-5.205,-0.812,2.891,1.768,-0.506,3.699
-5.262,1.505,2.779,1.513,-1.317,3.962
-8.207,2.583,3.617,1.336,-1.895,4.171
-11.011,1.748,6.499,0.716,-2.208,4.173
-18.485,-0.675,10.87,-0.14,-1.23,3.421
-24.66,-2.336,18.219,-1.67,-0.494,1.161
-33.222,2.067,31.028,-3.527,1.4,-1.583
-35.986,10.441,39.397,-5.25,2.304,-4.109
-34.514,20.959,39.047,-6.637,3.216,-6.076
-24.517,29.125,31.699,-6.4,2.273,-6.54
-18.289,32.835,23.849,-4.755,1.342,-5.133
-11.11,26.979,11.789,-2.36,0.032,-2.758
-6.095,15.63,2.932,-0.279,-0.051,-0.527
-6.46,3.832,1.255,1.903,-0.185,1.259
-10.492,-4.541,5.448,2.651,0.193,1.997
-11.78,-9.371,6.917,2.648,1.119,2.248
-9.691,-10.605,5.312,2.336,1.779,2.178
-8.845,-9.353,5.339,2.252,2.301,2.362
-6.54,-7.943,5.455,2.046,2.211,2.679
-4.631,-5.442,4.718,1.917,1.649,3.109
-3.31,-2.142,3.864,1.954,0.751,3.67
-3.3,0.846,4.327,2.016,-0.141,4.381
-4.802,3.16,4.928,1.87,-1.499,4.892
-9.654,4.527,6.868,1.699,-2.285,5.084
-16.259,3.286,9.833,0.983,-1.974,4.637
-21.04,-0.156,14.527,-0.184,-0.985,3.185
-28.704,-1.684,23.914,-2.151,0.201,0.271
-34.578,7.767,37.749,-4.158,1.631,-2.656
-34.362,18.833,44.284,-6.121,2.487,-5.304
-26.894,30.229,40.513,-6.872,2.643,-6.622
-20.42,36.054,32.944,-5.852,1.794,-6.496
-14.267,36.112,23.745,-3.555,0.367,-4.632
-8.751,22.647,9.179,-1.505,0.07,-2.746
-5.158,9.43,-0.112,0.458,0.279,-0.768
-7.767,-2.322,0.736,1.815,0.455,0.498
-10.177,-7.26,4.591,1.923,1.355,1.224
-8.276,-7.916,5.029,1.592,2.534,1.7
-7.07,-6.25,5.446,1.822,2.421,2.262
-6.918,-6.115,6.448,2.265,2.515,2.647
-5.91,-6.206,7.526,2.631,2.323,2.961
-5.526,-5.981,7.787,2.854,1.438,3.026
-6.365,-6.118,7.142,2.938,0.401,2.715
-6.196,-5.792,5.959,2.808,0.02,2.554
-5.961,-4.677,4.678,2.344,-0.684,2.735
-8.763,-3.973,3.665,1.856,-1.122,3.054
-13.32,-6.59,4.819,0.88,-0.682,3.373
-20.462,-10.34,9.27,-0.563,0.659,2.542
-27.375,-10.617,18.303,-2.526,1.738,0.255
-38.728,-5.099,30.944,-4.469,2.455,-2.289
-40.718,3.565,36.731,-6.169,2.357,-4.927
-36.771,16.479,32.533,-6.527,1.925,-6.497
-27.853,25.599,24.853,-4.842,0.727,-6.098
-22.785,27.715,17.131,-1.972,-0.466,-3.845
-14.559,19.313,7.47,0.794,-0.444,-1.596
-10.435,8.939,3.488,2.803,0.388,0.625
-11.612,-2.823,6.524,3.842,0.808,1.749
-13.282,-9.79,9.981,3.433,1.694,2.183
-11.25,-12.7,9.162,2.348,2.805,2.062
-7.211,-11.074,6.729,1.62,3.071,2.136
-6.983,-9.988,5.52,1.437,2.952,2.222
-4.931,-8.86,4.961,1.433,2.671,2.285
-3.826,-7.57,4.201,1.401,1.593,2.163
-2.923,-6.211,3.013,1.375,0.417,2.232
-3.057,-4.397,1.956,1.196,-0.349,2.515
-3.05,-2.615,1.072,0.891,-0.973,3.014
-6.619,-0.806,1.721,0.355,-1.417,3.853
-14.285,0.044,3.894,-0.427,-1.418,4.209
-22.805,-3.292,7.451,-1.191,0.202,3.236
-31.639,-3.588,15.734,-2.464,0.925,0.63
-41.121,3.244,26.268,-3.89,2.138,-2.175
-43.042,11.641,31.954,-5.134,2.392,-5.155
-35.027,21.28,28.226,-5.273,2.58,-6.579
-26.408,30.491,21.254,-4.283,1.138,-6.072
-20.004,32.097,13.623,-1.999,0.219,-3.825
-13.48,22.576,5.273,0.39,-0.338,-1.402
-9.984,11.468,0.184,2.285,0.355,0.862
-12.772,-0.58,2.721,3.376,1.118,2.052
-13.665,-8.312,7.851,3.346,2.041,2.514
-12.287,-12.033,8.416,2.51,2.795,2.557
-8.781,-11.883,6.981,1.938,2.877,2.562
-7.16,-11.098,5.888,1.876,2.554,2.591
-5.047,-10.466,5.147,1.815,1.872,2.513
-3.896,-9.333,3.882,1.665,0.507,2.257
-3.208,-7.502,2.604,1.494,-0.391,2.218
-2.323,-4.387,1.61,1.053,-0.9,2.575
-1.497,-0.873,0.886,0.65,-1.512,3.446
-7.375,3.877,4.189,0.278,-2.207,4.303
-18.93,2.122,7.517,-0.084,-1.183,4.541
-24.87,-1.426,13.557,-0.984,-0.381,2.778
-35.913,-0.612,26.163,-2.667,0.862,-0.008
-45.73,6.384,38.767,-4.394,1.552,-3.172
-43.561,14.19,40.566,-6.161,2.698,-5.958
-31.124,26.24,33.663,-6.505,2.11,-7.085
-24.039,34.431,25.8,-5.173,1.478,-5.711
-16.1,33.795,14.301,-2.432,-0.077,-3.452
-9.752,22.829,3.351,0.156,-0.061,-0.987
-8.297,10.337,-0.708,2.465,-0.167,1.231
-12.18,-1.29,3.887,3.466,0.412,2.304
-13.997,-8.186,7.446,3.406,1.162,2.565
-13.087,-11.264,6.545,2.795,1.591,2.34
-10.753,-10.698,5.495,2.442,2.094,2.074
-8.742,-10.337,5.176,2.283,2.42,2.061
-6.668,-8.974,5.123,2.077,2.062,2.236
-6.299,-7.516,4.407,1.917,1.198,2.302
-4.889,-6.015,4.108,1.805,0.995,2.587
-3.692,-4.33,3.185,1.512,0.039,2.988
-3.475,-1.857,2.032,1.238,-1.044,3.462
-5.309,0.759,2.708,1.039,-1.718,4.042
-12.409,1.784,5.489,0.661,-2.081,4.455
-17.487,-0.708,8.774,-0.22,-1.898,3.998
-23.485,-2.618,14.502,-1.53,-0.476,2.538
-32.026,-2.823,25.41,-3.357,1.332,-0.266
-38.979,5.354,36.105,-5.105,2.695,-3.144
-35.432,14.25,38.36,-6.587,3.621,-5.746
-28.807,25.662,33.255,-6.381,3.488,-6.575
-22.269,31.665,25.49,-4.984,2.086,-5.877
-15.212,32.582,15.304,-2.562,0.761,-3.437
-8.954,21.659,4.997,-0.161,0.069,-0.784
-7.737,10.462,1.131,1.954,-0.011,1.631
-12.032,-1.104,3.967,2.903,0.174,2.584
-14.717,-8.01,7.129,3.091,0.97,2.578
-13.339,-11.746,6.978,2.638,1.458,2.082
-10.631,-11.761,4.831,2.089,2.162,1.685
-7.434,-10.734,4.021,1.828,2.482,1.888
-5.193,-8.907,4.228,1.565,2.23,2.35
-3.602,-6.809,3.695,1.344,1.178,2.792
-3.244,-4.605,3.017,1.332,0.388,3.236
-2.854,-2.465,3.276,1.371,-0.693,3.598
-4.184,-0.008,3.291,1.347,-1.897,3.719
-7.031,2.241,4.095,1.3,-2.241,3.992
-11.565,2.441,6.491,0.93,-2.02,4.261
-17.056,0.976,9.607,0.117,-1.346,3.804
-22.008,-1.306,13.319,-1.006,-0.036,2.377
-28.098,-1.966,20.675,-2.735,1.698,-0.051
-32.68,2.735,30.403,-4.483,3.32,-2.77
-33.266,11.33,36.037,-5.679,4.154,-5.314
-27.975,21.506,34.832,-6.078,3.759,-7.067
-21.467,28.342,26.976,-5.166,2.782,-6.827
-14.944,30.488,17.946,-3.061,1.546,-5.06
-10.614,24.081,8.412,-0.595,0.408,-2.526
-7.679,13.54,2.008,1.325,0.246,-0.259
-9.409,2.262,2.087,2.834,0.649,1.838
-12.73,-5.838,7.269,3.091,1.079,2.552
-12.965,-10.805,8.839,2.7,1.668,2.606
-10.359,-11.937,6.914,2.004,2.072,2.259
-8.2,-11.503,5.277,1.712,2.102,2.334
-7.008,-10.048,4.012,1.49,1.879,2.274
-5.764,-8.706,3.261,1.566,1.408,2.192
-4.885,-7.26,2.892,1.612,0.581,1.962
-3.789,-5.517,2.4,1.68,-0.09,1.843
-3.043,-3.328,1.977,1.628,-0.617,2.106
-2.874,-1.125,1.972,1.446,-1.134,2.806
-5.601,1.33,4.405,1.168,-1.66,3.815
-13.82,0.116,8.24,0.58,-1.36,4.446
-20.934,-5.029,13.163,-0.652,-0.593,3.432
-31.253,-5.48,23.774,-2.659,0.321,0.825
-41.164,4.476,37.988,-4.557,1.328,-2.091
-41.388,14.755,41.941,-6.38,1.883,-5.161
-30.898,27.051,34.165,-6.45,2.019,-6.234
-22.977,35.668,28.033,-4.781,1.107,-5.081
-19.759,35.217,20.868,-1.773,-0.3,-2.554
-11.539,20.711,8.348,0.547,-0.202,-0.4
-9.501,7.333,3.273,2.864,-0.149,1.798
-13.457,-5.056,8.307,3.652,0.478,2.438
-14.65,-10.209,10.951,3.359,1.09,2.334
-9.154,-11.128,8.034,2.499,1.999,1.978
-6.947,-9.156,6.55,2.417,1.735,2.177
-6.91,-8.746,5.603,2.236,1.467,2.035
-6.686,-8.042,4.778,2.034,0.864,1.746
-6.722,-7.368,4.147,1.614,0.557,1.332
-5.768,-5.537,3.475,1.12,-0.03,0.998
-5.362,-3.447,2.473,0.778,-0.529,0.957
-4.441,-1.817,2.253,0.647,-0.463,1.683
-8.719,-4.052,5.243,0.486,-0.429,2.975
-19.552,-9.652,10.49,-0.771,-0.601,2.642
-27.861,-10.901,19.853,-2.394,0.719,0.804
-42.507,-6.647,32.544,-4.291,1.052,-1.507
-47.335,1.647,38.986,-6.123,1.023,-4.289
-40.327,14.566,34.028,-6.838,0.839,-6.227
-27.781,25.819,26.116,-5.112,0.792,-5.687
-21.719,28.474,18.061,-2.377,-0.819,-3.198
