ax,ay,az,gx,gy,gz
-4.604,-8.132,-1.417,-0.194,0.037,0.084
-4.831,-8.132,-1.414,-0.173,-0.083,0.112
-4.813,-8.264,-1.497,-0.136,0.016,0.127
-4.977,-8.408,-1.452,-0.132,0.097,0.113
-4.942,-8.434,-1.479,-0.183,0.125,0.087
-5.084,-8.391,-1.62,-0.263,0.23,0.062
-4.853,-8.308,-1.744,-0.337,0.312,0.028
-5.066,-8.257,-1.577,-0.398,0.392,0.019
-5.248,-8.199,-1.262,-0.392,0.535,0.028
-5.138,-7.79,-0.837,-0.305,0.814,0.037
-4.494,-7.372,-0.543,-0.199,0.86,0.053
-4.059,-7.096,-0.463,-0.011,0.864,0.213
-2.95,-6.777,-0.851,0.177,0.685,0.63
-1.611,-5.728,-1.311,0.208,0.314,1.372
-0.589,-4.606,-1.747,0.002,-0.243,2.371
-0.601,-3.152,-2.166,-0.337,-0.46,3.648
-0.209,-1.008,-2.274,-0.958,-0.393,4.984
-2.064,2.841,-0.522,-1.642,-1.057,5.961
-9.785,6.747,3.58,-2.359,-1.054,6.235
-20.465,6.803,11.605,-3.372,-0.889,4.972
-28.431,4.349,21.018,-4.799,-0.86,1.931
-39.036,11.388,31.975,-6.025,-0.703,-1.299
-43.651,21.035,36.285,-6.58,0.997,-4.329
-35.128,26.516,32.672,-6.461,-0.115,-5.483
-27.263,30.028,24.892,-4.885,-0.377,-4.626
-23.094,29.463,17.507,-2.35,-0.175,-2.127
-16.589,16.414,8.164,-0.023,-0.192,-0.278
-13.06,0.261,4.243,1.358,0.024,0.901
-14.308,-10.648,5.964,1.928,2.614,0.566
-11.384,-15.552,8.007,1.521,4.486,-0.102
-6.067,-14.257,8.727,0.73,5.759,-0.35
-0.669,-9.932,8.722,0.017,5.956,0.409
2.573,-5.752,7.578,-0.241,4.348,1.86
3.04,-3.537,6.353,-0.321,3.418,3.728
3.234,-1.813,4.825,-0.472,1.962,5.451
-2.612,1.137,4.751,-0.455,-0.998,6.64
-17.169,-2.264,14.74,-1.341,-2.724,6.458
-27.43,-6.923,25.178,-3.082,-2.108,3.697
-39.985,-1.722,36.29,-4.713,-3.059,0.525
-47.21,13.637,40.931,-5.541,-1.648,-2.405
-42.843,20.134,38.02,-5.591,-1.367,-4.294
-33.419,25.56,27.729,-3.873,-0.182,-4.37
-26.058,25.453,19.946,-1.466,-0.016,-2.064
-16.502,14.555,9.694,0.535,1.006,-0.394
-9.308,-4.106,5.393,1.392,0.49,0.579
-9.069,-14.431,6.686,1.317,2.554,0.543
-4.739,-17.167,6.789,0.64,3.842,0.198
-1.32,-13.469,4.463,0.05,4.25,0.23
1.979,-7.988,3.342,-0.074,3.703,1.134
0.954,-4.881,2.99,0.392,3.025,2.576
1.443,-2.597,2.418,0.587,2.621,4.433
1.128,0.027,1.426,0.574,1.076,5.906
-5.01,2.243,5.363,0.762,-0.827,6.917
-14.908,-4.086,16.887,-0.118,-1.635,6.634
-22.72,-7.125,29.554,-2.169,-1.539,4.461
-34.711,0.144,45.377,-3.999,-1.397,1.09
-39.361,14.656,55.492,-5.59,0.671,-1.92
-31.251,21.139,50.942,-5.994,0.083,-3.629
-27.622,29.137,40.731,-4.236,0.484,-3.522
-23.257,28.782,31.243,-1.485,0.543,-2.013
-16.389,17.279,17.921,0.895,0.855,-0.584
-12.781,-0.869,10.692,2.847,0.28,0.169
-15.89,-10.644,12.25,3.219,3.02,-0.063
-9.369,-13.719,12.939,2.392,5.011,-0.531
-3.854,-12.115,11.078,1.458,5.801,-0.368
2.306,-9.123,9.452,0.971,4.954,0.724
3.019,-7.008,6.125,0.934,3.054,2.065
2.019,-5.39,3.711,1.117,2.624,3.498
1.822,-4.692,1.531,0.83,2.111,4.823
0.419,-3.545,2.346,0.045,-0.2,5.824
-14.499,-10.79,14.612,-0.803,-0.893,5.914
-22.892,-12.818,30.721,-2.882,-0.822,3.353
-34.53,-3.892,47.106,-5.039,-1.133,0.512
-37.464,12.583,53.79,-6.138,-0.975,-1.827
-38.678,20.666,51.086,-4.906,-1.344,-3.399
-31.809,27.269,42.033,-2.902,-0.562,-3.453
-26.589,26.219,29.866,-0.322,0.586,-1.733
-16.139,14.539,17.377,1.872,1.477,-0.489
-14.068,-3.149,13.814,3.241,1.883,-0.08
-12.335,-12.073,16.46,2.823,4.709,-0.292
-5.034,-11.406,14.663,1.675,5.759,-0.843
-0.857,-8.585,12.33,0.997,6.014,-0.234
2.321,-6.137,9.332,0.875,4.812,1.087
1.925,-4.412,6.045,1.155,3.146,2.569
1.332,-2.87,3.553,1.193,2.408,4.17
0.774,-1.436,2.472,0.909,0.736,5.37
-7.796,-5.507,11.256,0.646,-1.756,5.975
-16.603,-12.947,26.464,-1.426,-1.945,4.482
-29.764,-4.621,42.33,-3.615,-1.776,1.674
-43.407,10.945,50.732,-5.497,-1.328,-1.535
-41.314,20.987,47.276,-5.446,-1.743,-3.28
-39.733,28.008,38.738,-4.284,-0.689,-3.433
-35.832,30.914,28.221,-1.429,-0.019,-2.362
-25.242,18.666,17.307,1.164,1.088,-0.885
-10.941,0.022,11.997,3.168,1.066,0.537
-12.862,-12.364,15.86,3.439,3.238,0.767
-6.039,-16.249,16.589,2.703,5.343,0.235
-0.36,-12.039,12.929,1.885,5.374,0.588
3.115,-8.427,8.167,1.372,4.017,1.654
2.161,-5.157,4.856,1.45,3.224,2.924
2.289,-3.624,3.476,1.485,2.416,4.081
0.725,-2.19,3.658,1.078,-0.272,4.884
-12.801,-8.664,17.414,0.042,-1.032,5.218
-20.923,-11.807,33.089,-2.038,-1.517,3.033
-31.746,-5.09,49.196,-4.12,-1.457,0.341
-33.132,11.229,58.172,-5.322,-0.951,-1.29
-35.835,20.331,56.773,-4.984,-0.793,-2.696
-28.894,24.676,45.465,-3.198,-0.127,-2.855
-24.793,24.359,33.115,-0.599,0.773,-1.453
-14.298,13.703,20.508,1.601,1.696,-0.026
-13.331,-4.5,13.447,2.929,1.973,0.397
-8.296,-15.509,14.634,2.78,4.792,0.764
-1.454,-14.076,11.731,1.987,5.466,0.465
3.446,-10.526,9.15,1.567,5.265,1.307
3.404,-7.025,6.582,1.618,3.855,2.53
3.109,-4.246,4.637,1.563,3.304,3.802
1.585,-2.673,4.215,1.47,1.7,4.902
-6.923,-2.207,14.535,0.97,-0.915,5.495
-18.503,-11.01,25.073,-1.208,-1.825,4.42
-29.099,-7.819,40.249,-3.459,-1.05,1.769
-44.323,1.476,51.305,-5.506,-1.708,-1.142
-30.833,-9.64,6.275,1.154,0.742,-0.015
-6.615,-7.005,7.483,1.449,2.426,-0.28
-7.285,-8.966,9.784,1.944,3.651,-0.215
-7.058,-10.181,12.758,2.37,5.296,0.117
-5.515,-9.93,15.328,2.941,6.135,0.873
0.675,-5.186,13.557,2.874,5.095,1.676
0.497,-2.312,10.102,3.263,3.443,3.123
-0.064,-0.906,8.167,3.41,2.622,4.49
-3.097,0.641,6.354,3.245,0.237,5.402
-9.02,-0.814,15.415,1.955,-1.72,6.274
-16.219,-10.161,29.336,-0.666,-1.188,5.382
-25.24,2.672,8.764,-0.144,-1.644,1.031
-11.072,-4.078,15.183,-1.367,-1.809,2.134
-18.961,-4.48,30.312,-3.113,-0.973,1.852
-28.77,2.346,46.002,-4.86,0.47,0.106
-33.08,16.88,54.587,-6.391,0.768,-1.641
-28.273,24.581,50.204,-6.365,1.86,-3.152
-25.734,31.392,40.012,-4.265,1.654,-3.672
-21.595,27.604,28.228,-1.466,0.847,-2.481
-15.823,17.652,16.127,1.244,0.383,-0.373
-12.549,0.881,10.849,3.694,1.607,1.562
-13.022,-9.081,12.618,4.783,3.416,2.584
-9.975,-10.895,15.406,5.138,5.089,3.035
-7.01,-6.127,14.352,5.129,5.821,3.76
-6.273,-3.636,12.005,5.006,4.497,4.74
-8.04,-3.833,11.648,3.889,3.544,5.526
-10.417,-6.14,14.754,1.924,1.537,5.407
-18.082,-6.906,22.71,-1.031,-0.842,4.46
-22.657,-5.432,34.734,-3.821,-0.874,1.99
-25.834,2.597,43.797,-6.408,0.318,-1.032
-22.57,16.667,48.344,-6.72,0.043,-3.591
-21.85,26.361,45.43,-5.334,-0.691,-4.917
-18.27,27.439,37.045,-2.986,0.597,-3.991
-16.008,23.803,26.506,-0.335,0.271,-2.216
-14.022,12.663,20.819,2.366,0.504,-0.136
-15.244,-2.348,16.956,3.658,1.525,1.469
-13.546,-10.652,16.094,4.065,3.94,2.281
-7.809,-12.07,15.867,4.255,5.17,1.398
-3.197,-11.514,12.699,4.163,5.49,0.924
1.752,-8.57,7.857,3.782,4.468,1.293
2.352,-5.661,3.917,3.341,3.02,2.224
2.602,-3.311,4.059,2.54,1.638,3.71
-5.816,0.92,10.844,1.622,-0.552,4.975
-15.104,-4.747,23.143,-0.784,-1.467,4.563
-25.343,-0.21,39.058,-3.105,-0.419,2.049
-40.871,12.047,55.053,-5.191,-0.254,-0.65
-40.993,27.364,60.383,-6.543,0.34,-3.524
-34.626,32.753,50.689,-6.373,0.474,-5.364
-29.422,40.376,38.226,-4.145,0.777,-4.374
-22.844,33.541,25.823,-1.438,-0.616,-1.901
-10.716,18.448,13.295,1.253,0.021,0.104
-10.898,0.109,8.684,3.36,1.045,1.686
-10.63,-10.25,11.573,4.235,2.865,2.454
-8.752,-12.373,13.391,4.601,4.419,2.216
-5.332,-9.981,11.667,4.424,5.819,2.898
-2.277,-7.135,8.997,3.913,5.166,4.222
-4.651,-4.589,8.305,3.429,3.996,5.18
-5.766,-1.354,10.048,2.012,2.158,5.548
-10.475,-0.668,16.086,0.601,-0.824,5.404
-17.77,-4.883,27.011,-1.93,-2.589,4.037
-26.027,-0.732,42.209,-4.11,-0.943,1.116
-34.77,13.951,51.58,-6.171,-0.365,-1.706
-29.097,21.967,50.789,-5.979,-0.678,-3.563
-26.5,26.578,42.334,-4.576,0.239,-4.063
-24.092,26.429,31.82,-1.941,0.676,-3.159
-18.952,20.808,18.723,0.454,-0.989,-1.555
-8.786,3.649,9.829,2.664,-0.122,0.298
-12.685,-7.579,9.359,3.602,2.237,1.659
-10.902,-12.846,11.529,3.546,4.008,1.953
-7.098,-7.937,12.019,3.61,5.915,2.039
-3.401,-5.755,11.279,3.72,6.911,3.344
-1.99,-2.782,9.779,3.793,5.283,4.818
-4.563,-0.856,10.458,3.321,3.125,5.648
-6.831,-0.749,13.913,1.789,1.498,6.006
-14.228,-5.567,22.213,-0.351,-1.939,5.105
-21.064,-6.675,34.594,-2.857,-3.531,3.22
-28.645,-1.9,49.389,-5.139,-1.789,0.316
-29.853,11.587,54.051,-7.017,-0.461,-2.231
-25.517,20.628,50.317,-6.278,-1.114,-3.667
-20.317,27.089,39.811,-4.072,0.203,-3.164
-18.318,22.47,28.252,-1.636,1.188,-2.629
-13.252,14.429,14.779,0.616,0.267,-1.398
-10.604,-1.135,9.946,2.734,1.408,0.187
-11.882,-10.601,10.563,3.024,4.002,1.519
-9.189,-13.005,12.055,2.643,5.456,2.037
-4.696,-7.974,10.774,2.621,6.007,3.417
-2.16,-5.133,9.329,2.65,5.794,5.009
-0.761,-4.063,6.943,2.319,4.207,6.291
-3.173,-2.159,7.279,1.621,1.945,6.064
-6.647,-0.312,11.05,0.359,-0.779,5.119
-11.712,-4.391,18.227,-1.603,-2.519,3.744
-18.886,-6.58,31.483,-3.884,-3.516,2.291
-27.918,-1.64,46.876,-5.702,-2.238,-0.8
-33.0,13.173,52.792,-7.181,-0.916,-2.739
-27.121,20.465,48.393,-6.565,-0.119,-3.681
-25.465,27.074,39.015,-4.187,0.247,-3.205
-22.253,22.891,28.538,-1.718,1.509,-2.532
-15.485,15.792,14.94,0.716,0.409,-0.649
-8.831,-1.029,8.251,3.067,1.221,0.902
-11.009,-10.192,8.828,3.828,3.601,2.136
-7.503,-13.289,11.296,3.643,4.99,2.366
-3.746,-7.641,9.952,3.887,4.946,2.872
-2.343,-6.171,9.376,3.984,4.497,3.46
-1.626,-6.985,10.17,3.355,2.946,4.017
-4.881,-5.626,12.845,2.314,0.027,3.679
-7.056,-4.599,17.009,0.801,-2.075,3.35
-10.412,-12.882,25.878,-1.391,-3.698,2.557
-14.718,-13.795,40.05,-3.923,-3.37,1.715
-23.334,-3.275,50.529,-5.644,-2.82,-0.681
-17.795,12.006,53.013,-5.969,-0.86,-1.081
-16.765,19.58,47.008,-4.82,-0.525,-2.086
-17.239,27.843,39.093,-2.396,0.446,-1.183
-15.124,27.103,29.086,0.406,0.892,-0.614
-8.764,15.581,19.534,3.033,1.136,1.008
-11.148,-2.159,15.22,4.278,2.01,1.282
-9.716,-11.223,17.077,4.372,3.715,1.831
-5.336,-11.34,14.894,3.83,4.606,0.858
-1.602,-9.113,10.368,3.421,4.955,1.27
0.786,-5.808,7.46,3.047,4.263,2.496
-2.346,-3.938,7.882,2.646,2.231,3.227
-6.831,-2.386,10.185,1.617,0.846,3.662
-11.305,-5.157,14.762,0.595,-0.655,3.786
-15.17,-11.07,24.55,-1.799,-2.392,2.447
-25.198,-8.876,39.508,-4.051,-1.896,-0.12
-35.455,3.173,43.71,-6.027,-1.087,-2.634
-25.23,14.813,42.5,-5.265,-0.481,-3.355
-25.024,24.169,38.194,-3.613,-0.871,-3.794
-28.533,27.576,33.098,-0.545,0.525,-1.941
-21.442,24.036,22.881,2.355,0.702,0.049
-9.0,9.657,19.519,5.18,1.356,2.009
-15.382,-3.45,19.295,5.792,2.203,2.455
-11.824,-11.073,19.061,5.5,3.843,2.986
-5.733,-9.749,13.308,4.86,3.838,2.571
-4.386,-9.79,8.222,3.95,2.651,2.909
-6.515,-9.382,7.663,2.269,1.786,3.519
-11.02,-14.291,11.774,0.462,0.666,4.02
-13.379,-17.684,25.58,-2.279,0.047,2.894
-22.241,-11.935,41.176,-4.707,0.917,0.184
-26.261,2.594,48.718,-6.448,1.638,-2.426
-23.384,12.367,44.242,-5.298,0.99,-4.197
-23.371,20.139,38.058,-3.383,0.98,-4.185
-25.168,22.116,29.826,-0.424,2.275,-2.948
-17.475,15.78,19.122,2.19,1.859,-1.246
-11.623,0.89,13.599,4.241,2.863,0.545
-10.952,-7.281,16.555,4.352,4.869,1.78
-4.843,-9.858,16.943,3.916,5.935,1.673
0.374,-7.305,10.587,3.352,4.739,1.869
2.459,-5.424,5.362,2.813,3.517,3.011
0.694,-3.328,3.844,2.511,1.6,3.929
-3.077,-0.963,8.163,1.414,-0.67,5.261
-12.183,-7.545,18.328,0.146,-0.665,5.946
-22.217,-9.577,33.786,-2.248,-0.245,4.352
-36.265,4.198,26.526,-2.206,0.567,-1.507
-18.353,17.169,28.395,-3.516,1.366,-3.253
-16.291,28.385,29.434,-3.781,0.246,-4.119
-20.323,31.688,28.438,-2.585,0.335,-3.59
-24.487,27.831,32.996,-1.541,0.206,-2.321
-20.977,23.907,21.162,1.158,-0.03,-0.686
-10.495,5.751,12.286,3.812,0.299,0.831
-13.271,-6.646,14.128,5.109,2.619,1.515
-9.678,-10.464,17.706,5.036,3.861,1.051
-5.416,-7.499,14.881,5.062,4.974,0.449
-2.093,-6.997,11.972,4.773,4.789,1.324
-2.948,-5.49,9.446,4.13,3.903,2.373
-3.809,-4.349,8.613,2.877,2.639,3.022
-6.152,-4.018,10.64,1.559,-0.118,3.288
-11.336,-6.386,16.932,-0.342,-1.868,3.368
-14.982,-8.909,31.675,-2.752,-1.254,2.061
-23.222,-0.272,46.438,-4.763,-0.828,-0.506
-22.669,15.458,51.944,-5.773,-0.433,-2.242
-23.563,25.826,47.134,-4.966,-0.015,-3.021
-22.572,29.32,41.834,-3.192,1.068,-2.527
-21.863,31.159,30.49,-0.516,-0.019,-1.818
-14.218,20.479,17.666,1.881,0.232,-0.29
-13.679,2.882,12.106,3.679,1.181,0.748
-10.484,-9.352,14.371,3.835,3.184,1.348
-7.087,-10.489,13.522,3.778,3.86,0.664
-3.485,-9.149,10.648,3.611,4.661,0.932
-0.879,-6.945,8.874,3.459,3.66,1.716
-1.485,-5.162,7.791,3.243,1.656,2.226
-2.813,-3.164,8.42,2.489,0.788,2.292
-3.691,-1.212,10.96,1.367,-1.137,2.271
-10.868,-13.571,22.799,-0.004,-2.654,2.673
-17.664,-14.78,37.396,-2.248,-1.607,2.655
-27.081,-4.718,52.177,-4.345,0.312,0.629
-20.772,9.296,55.606,-4.292,-0.457,-0.825
-23.265,15.84,50.273,-3.071,-0.269,-1.595
-20.85,26.697,39.171,-1.592,1.296,-1.497
-17.258,26.06,26.746,0.759,0.68,-1.665
-9.393,12.863,13.718,2.954,0.746,0.089
-14.092,-2.644,10.055,3.338,2.845,1.491
-10.434,-10.968,12.572,3.069,4.462,2.159
-5.853,-8.996,11.959,3.015,4.859,1.746
-2.216,-7.088,9.794,3.185,5.14,2.49
-0.172,-3.804,7.391,3.316,3.985,3.753
-2.296,-1.417,6.389,3.384,2.005,4.493
-5.235,0.243,7.92,2.758,0.806,4.656
-10.588,-0.381,14.331,1.931,-1.734,4.387
-15.159,-7.682,28.02,-0.59,-1.991,3.505
-25.508,-3.886,43.45,-2.916,-0.35,1.12
-38.877,10.962,53.78,-5.179,0.291,-1.532
-31.886,21.664,51.118,-5.55,-0.301,-3.085
-29.008,27.174,41.37,-4.383,1.493,-2.991
-30.032,29.354,30.099,-1.601,0.539,-2.156
-22.181,22.646,17.862,0.664,-0.799,-0.862
-8.78,4.655,7.337,2.864,0.065,0.603
-12.769,-8.32,8.47,3.661,2.542,1.676
-10.295,-13.306,11.804,3.157,3.596,1.739
-4.86,-7.851,9.52,2.719,5.372,1.777
-1.798,-4.65,6.861,2.835,5.409,2.992
-1.654,-1.252,6.769,2.893,4.349,4.685
-4.697,1.023,6.215,2.751,2.21,5.357
-6.774,1.887,8.817,1.856,0.742,5.521
-14.167,3.307,18.09,1.046,-1.856,5.195
-19.615,-6.994,29.164,-1.335,-2.488,4.07
-17.346,0.75,10.955,-0.251,-1.583,0.357
-8.791,-6.43,18.72,-1.225,-2.331,0.971
-17.809,-10.205,34.41,-2.971,-1.07,0.625
-1.173,-2.958,3.576,1.373,1.333,0.646
0.857,-2.342,3.95,2.239,2.003,1.526
0.674,-2.9,4.295,3.135,1.87,2.525
-0.345,-3.434,6.548,3.699,1.349,3.492
-4.691,-1.782,12.143,3.769,0.738,3.856
-7.996,-8.522,19.141,2.556,-1.831,3.633
-10.8,-10.653,32.981,-0.336,-2.35,3.145
-19.56,-3.978,48.325,-2.978,-0.47,1.577
-29.343,10.559,57.604,-5.289,0.656,-1.137
-52.567,38.816,14.815,-2.206,0.628,-1.762
-6.446,26.233,10.56,-2.225,0.637,-3.043
-5.948,30.485,9.11,-1.595,0.511,-3.208
-8.123,29.678,10.004,-0.874,-0.289,-2.503
-10.991,27.002,11.931,-0.377,-0.171,-2.106
-1.938,9.352,4.941,1.799,0.24,0.09
-5.977,-2.784,4.5,2.799,1.196,1.887
-7.438,-7.674,6.551,3.007,2.184,2.796
-5.751,-7.446,6.303,3.191,3.89,3.265
-3.211,-4.4,4.726,3.679,4.035,4.26
-3.232,-0.871,4.798,4.25,2.272,5.016
-7.066,2.327,8.082,4.692,0.161,4.653
-11.653,4.542,16.661,4.545,-1.999,4.166
-13.475,0.393,25.64,2.947,-3.337,3.8
-21.59,-1.53,39.634,0.216,-1.854,2.561
-29.054,9.357,52.0,-2.531,-0.863,-0.391
-28.394,20.982,52.747,-5.215,1.015,-1.837
-21.607,24.6,42.484,-5.925,1.923,-3.024
-21.006,30.778,30.488,-4.516,1.674,-3.753
-14.115,29.944,16.945,-2.411,0.074,-3.347
-6.187,16.019,4.293,-0.313,0.706,-1.016
-2.373,0.285,0.236,1.761,1.004,1.042
-3.657,-5.899,1.782,2.314,1.971,2.862
-1.852,-7.667,4.337,2.286,2.955,3.824
-0.448,-5.006,3.687,2.871,2.473,4.489
-1.644,-2.275,4.755,3.792,0.566,5.012
-8.554,1.181,12.005,4.815,-1.855,4.852
-13.658,-4.752,21.655,4.236,-2.238,4.436
-19.028,-8.553,33.359,1.801,-1.18,3.493
-28.11,-1.002,48.622,-0.889,-0.381,0.522
-37.396,9.93,51.989,-3.907,0.983,-2.332
-26.913,17.277,43.077,-5.266,2.184,-3.486
-22.631,28.185,32.233,-5.005,1.687,-3.52
-21.152,30.165,22.031,-2.68,-0.457,-2.88
-13.29,19.921,9.485,-0.607,-0.372,-0.892
-4.087,4.459,4.656,1.454,-0.838,0.736
-8.151,-6.104,6.442,1.709,0.312,1.462
-7.605,-11.075,7.208,2.0,1.096,1.319
-3.929,-10.676,5.319,2.069,2.804,1.262
-2.05,-8.927,2.451,2.467,3.147,1.94
0.748,-5.469,1.795,3.087,3.387,3.097
-0.344,-3.084,3.765,3.765,1.469,4.066
-5.83,-2.236,14.0,4.15,-0.514,4.342
-9.851,-11.12,21.813,2.565,-1.827,4.142
-14.967,-12.232,33.868,0.093,-1.676,3.514
-23.41,-6.659,45.605,-2.587,-1.685,0.728
-27.261,4.077,47.849,-5.306,-0.269,-1.696
-20.659,10.424,36.704,-6.233,0.912,-3.004
-18.412,23.327,28.573,-4.471,1.443,-3.269
-14.989,21.356,17.119,-2.198,0.309,-2.681
-8.114,13.459,6.011,-0.002,0.685,-0.465
-3.251,0.532,1.179,2.26,0.695,1.284
-4.868,-6.543,2.39,2.984,1.727,2.602
-3.327,-8.881,3.419,3.041,2.431,3.307
-2.507,-4.343,3.427,3.611,2.891,3.692
-3.969,-0.579,5.034,4.41,1.824,4.308
-8.548,2.461,11.163,5.022,0.262,4.505
-12.453,0.419,18.347,4.666,-0.92,4.318
-15.776,-5.788,24.735,2.038,-1.526,3.766
-20.834,-7.575,37.708,-0.806,-0.807,1.825
-27.246,-2.684,45.647,-3.8,0.062,-1.007
-23.029,9.061,44.371,-6.231,1.717,-2.533
-17.752,16.494,35.341,-6.478,1.569,-3.476
-16.609,24.009,27.799,-3.929,1.037,-3.217
-14.144,20.478,15.753,-1.77,0.003,-2.04
-6.802,11.289,6.812,0.246,-0.03,-0.086
-6.748,-3.735,2.42,1.733,0.287,0.927
-7.519,-9.232,4.336,2.001,1.5,1.764
-5.503,-11.146,4.949,1.83,2.524,1.807
-2.662,-7.252,3.667,2.172,3.333,2.392
-0.743,-4.433,2.21,2.615,3.409,3.557
-1.931,-1.368,2.828,3.347,1.873,4.538
-4.954,1.168,6.946,3.644,0.727,5.18
-11.186,0.352,15.006,3.955,-1.531,4.635
-13.706,-5.469,22.534,2.213,-2.008,3.672
-20.622,-7.709,34.002,-0.246,-1.892,2.02
-26.357,-2.997,44.376,-2.909,-0.853,-0.862
-28.867,8.288,45.738,-5.308,0.46,-2.67
-19.919,15.14,37.091,-5.983,1.256,-3.369
-20.1,23.128,29.074,-3.838,0.059,-3.359
-16.207,19.236,19.246,-1.744,-0.044,-2.706
-9.734,11.467,8.668,0.145,-0.381,-0.707
-5.082,-2.713,3.314,2.008,-0.415,0.282
-7.602,-8.808,4.238,2.128,1.232,1.224
-4.887,-10.849,4.776,1.661,2.852,1.757
-2.098,-5.147,3.521,2.165,3.177,2.39
-1.371,-2.935,2.879,2.904,3.213,3.423
-3.023,-0.742,4.83,3.645,1.813,4.142
-5.653,0.05,8.326,3.977,0.135,4.454
-8.76,0.054,14.808,3.839,-2.007,4.272
-11.891,-4.825,21.381,2.629,-2.15,3.946
-15.895,-9.649,30.876,0.001,-1.717,3.057
-19.806,-7.026,43.992,-2.602,0.507,0.479
-22.302,6.384,47.787,-4.721,1.807,-1.613
-18.033,12.788,40.513,-5.075,2.304,-2.737
-17.77,19.431,32.861,-3.635,1.448,-2.76
-16.853,19.077,25.08,-1.342,0.817,-2.575
-12.349,12.186,11.788,0.696,-0.358,-0.661
-7.79,-3.718,5.482,2.2,-0.127,0.679
-9.7,-10.982,6.615,2.266,1.432,1.243
-7.091,-13.484,7.885,1.62,2.712,0.696
-3.41,-9.036,5.821,1.574,3.836,0.432
-1.197,-6.234,4.162,1.948,4.369,0.774
0.073,-4.26,3.526,2.484,4.153,1.581
0.292,-2.635,3.396,2.866,3.173,2.354
-1.788,-0.956,4.298,3.06,1.763,3.006
-5.507,-0.188,7.61,2.906,0.388,3.722
-10.895,-0.013,15.901,2.225,-1.391,4.021
-16.823,-5.119,23.364,0.2,-2.825,3.324
-24.355,-6.047,32.997,-2.193,-1.773,1.521
-28.428,-1.607,40.464,-4.569,-0.929,-0.989
-23.893,11.921,40.269,-5.402,-0.141,-2.416
-18.627,18.951,31.82,-4.816,0.468,-3.096
-15.934,23.576,25.461,-1.867,0.022,-2.546
-12.257,20.34,18.981,0.024,0.19,-1.328
-7.163,11.803,11.827,1.408,0.081,0.292
-8.98,-3.213,8.817,1.563,0.135,0.617
-9.17,-10.104,8.388,1.02,1.11,0.485
-6.399,-9.236,6.577,-0.122,3.25,0.141
-1.379,-5.7,3.303,0.307,3.323,0.701
0.628,-2.426,1.623,1.313,3.219,1.626
1.578,-1.223,1.468,2.387,2.547,2.473
0.105,-0.518,4.163,3.277,1.09,3.256
-4.411,0.723,9.651,3.958,-0.545,3.49
-8.743,-0.884,19.432,3.999,-2.818,3.39
-12.018,-10.395,26.734,1.609,-3.194,3.791
-17.855,-11.929,37.87,-0.88,-1.247,2.075
-23.475,-5.99,46.705,-3.538,-0.872,-0.45
-18.291,3.865,43.523,-5.532,-0.109,-1.379
-14.593,11.006,32.36,-5.872,1.356,-1.616
-14.997,19.686,24.939,-3.115,0.469,-2.224
-12.358,17.425,16.182,-0.89,-1.181,-1.349
-8.561,7.106,7.15,0.736,-0.243,0.134
-9.806,-5.487,6.561,1.258,0.862,0.338
-10.365,-10.946,7.934,0.831,1.035,-0.344
-7.581,-9.878,7.581,-0.116,2.968,-0.981
-4.214,-5.719,4.946,-0.24,3.895,-0.622
-0.001,-1.557,2.562,0.481,4.02,0.374
0.914,-0.348,2.165,1.701,3.15,1.573
1.043,-0.423,3.482,2.676,2.577,3.063
-1.953,-0.072,8.272,3.293,1.474,4.071
-5.454,-0.942,14.351,3.587,-0.632,4.572
-8.28,-6.321,24.554,3.245,-2.148,4.367
-14.848,-12.644,32.679,0.647,-3.31,4.172
-21.674,-9.948,46.233,-1.921,-2.035,2.107
-28.634,3.531,48.843,-4.348,-1.564,-0.364
-21.518,12.053,43.899,-4.71,-0.733,-1.696
-21.005,20.741,34.085,-3.788,-0.485,-2.05
-19.181,19.956,27.835,-1.048,0.013,-1.711
-12.882,15.046,15.306,1.083,-0.33,-0.248
-4.491,-1.488,9.292,3.249,-0.102,1.214
-8.661,-10.646,9.117,3.4,1.417,2.033
-6.621,-14.755,9.565,2.752,3.039,2.521
-1.913,-7.922,7.234,2.46,4.129,2.398
-0.857,-5.456,5.016,2.825,3.746,3.098
-1.212,-1.843,6.561,3.225,2.798,4.335
-6.786,1.558,12.303,3.183,0.268,4.543
-11.162,-4.252,20.195,2.344,-0.585,4.383
-18.386,-6.928,31.148,-0.103,-1.783,3.166
-25.169,-1.074,44.477,-2.6,-0.72,0.351
-30.228,6.81,46.719,-5.087,-0.163,-2.254
-24.738,10.254,41.703,-6.106,0.951,-3.723
-21.597,20.478,32.175,-5.453,0.675,-4.423
-15.342,24.484,20.609,-2.961,0.923,-3.824
-9.869,17.75,8.511,-0.409,-0.856,-1.741
-4.464,7.627,5.23,2.027,-0.815,0.224
-4.897,-0.186,5.763,3.589,-0.029,1.834
-5.124,-5.817,7.814,4.257,0.449,2.701
-6.887,-7.631,8.375,4.577,1.296,2.977
-7.183,-7.643,8.289,4.566,2.358,3.245
-8.334,-6.804,9.455,4.688,2.092,3.002
-10.298,-5.927,12.447,4.646,0.852,2.559
-12.252,-10.1,18.661,3.761,0.084,1.72
-13.854,-14.177,28.972,0.95,-0.204,0.807
-20.096,-8.165,42.367,-1.591,-0.668,-1.713
-25.908,1.552,44.987,-4.229,0.005,-3.543
-20.141,11.021,39.93,-4.762,0.186,-4.553
-19.543,20.561,31.859,-3.555,-0.376,-4.65
-19.2,18.74,23.933,-0.862,-0.804,-3.484
-12.597,11.887,12.439,1.247,-0.36,-1.433
-4.67,0.598,8.297,3.363,-0.711,0.04
-7.914,-8.973,8.886,3.568,0.495,1.05
-5.794,-13.313,10.217,3.051,2.337,1.796
-2.099,-6.736,7.382,2.919,3.324,1.87
-1.675,-4.785,4.674,3.43,2.994,2.598
-2.835,-2.025,5.473,3.988,2.651,3.476
-5.641,-0.381,8.783,4.262,1.866,3.935
-9.568,-0.138,16.04,4.218,-0.585,3.524
-11.515,-11.442,25.874,2.061,-1.823,2.826
-19.061,-9.905,39.182,-0.559,-1.117,1.524
-26.022,-2.213,48.591,-3.232,-0.559,-1.053
-24.463,10.498,49.822,-5.368,0.075,-2.574
-19.53,16.503,40.454,-5.782,1.141,-3.372
-18.629,29.765,30.218,-3.256,1.273,-3.307
-12.86,25.269,17.533,-0.646,-0.261,-2.278
-6.338,16.416,8.34,1.753,-0.057,0.296
-6.641,2.566,4.902,3.738,-0.201,1.86
-8.498,-3.484,7.791,4.181,0.437,3.151
-8.971,-5.409,9.49,3.751,0.948,3.118
-7.727,-2.465,10.184,3.595,0.989,2.415
-8.282,-0.926,10.756,3.955,0.826,1.326
-7.378,0.569,13.072,4.255,0.119,0.641
-9.6,-0.776,16.909,4.59,-1.128,0.287
-10.468,-11.193,25.366,2.795,-0.218,0.281
-13.226,-14.756,38.89,0.342,0.864,-0.973
-21.456,-6.031,46.565,-2.418,0.309,-2.458
-22.119,5.228,46.902,-4.627,1.077,-3.06
-19.164,11.401,40.165,-5.392,1.138,-4.2
-18.504,23.265,29.279,-3.592,-0.201,-4.057
-17.393,23.568,14.181,-1.093,-0.866,-2.361
-7.431,12.651,5.841,1.315,0.299,0.195
-7.061,-0.793,3.269,3.317,0.204,1.503
-8.229,-5.512,6.19,3.786,1.774,3.072
-7.354,-7.415,8.797,3.919,2.859,3.541
-5.464,-3.654,9.662,4.141,3.034,4.121
-6.632,-2.061,11.738,4.263,1.303,4.096
-9.852,-1.357,16.567,4.508,-0.174,3.494
-12.446,-10.815,24.959,2.644,-1.913,2.629
-18.324,-11.447,36.576,0.004,-1.184,0.999
-27.916,-1.471,46.668,-2.717,-1.37,-1.826
-28.35,10.888,47.76,-5.126,-0.391,-3.769
-23.481,18.021,39.649,-5.94,-0.081,-4.619
-21.71,29.418,28.856,-3.748,0.794,-3.928
-17.588,24.562,17.596,-1.363,-0.469,-2.62
-7.89,12.06,8.142,0.938,-0.51,-0.284
-6.689,-3.193,3.579,3.092,-0.169,1.116
-7.351,-11.461,5.748,3.498,1.667,2.239
-4.812,-13.963,6.772,3.022,2.707,2.3
-2.65,-9.537,5.025,3.187,2.662,2.376
-2.955,-8.269,4.409,3.446,2.812,2.243
-2.555,-5.642,6.145,3.541,2.088,2.682
-5.582,-4.051,10.964,3.786,-0.321,2.587
-7.71,-11.054,20.518,2.964,-1.046,2.507
-13.772,-13.353,34.293,0.414,-0.884,1.565
-22.214,-2.788,48.502,-2.145,-1.349,-0.639
-28.968,10.208,50.342,-4.515,-0.837,-2.112
-24.184,17.031,42.528,-5.139,-0.056,-3.215
-23.809,26.878,32.678,-3.939,-0.639,-3.387
-20.523,26.877,20.712,-1.431,-1.3,-2.571
-11.884,14.901,7.796,0.741,-0.085,-0.257
-4.817,-1.089,4.676,2.853,-0.164,0.915
-7.205,-8.839,7.431,3.096,0.865,2.143
-6.399,-12.17,8.038,2.847,2.384,2.39
-3.225,-8.383,6.391,3.008,3.596,2.707
-2.682,-6.556,3.999,3.62,2.965,3.199
-3.354,-3.183,3.568,4.395,2.561,3.845
-5.88,-0.012,5.63,4.746,1.915,3.958
-7.374,2.458,10.395,4.471,0.448,3.837
-10.953,2.748,21.07,3.794,-2.178,3.131
-10.862,-10.33,31.707,1.01,-1.888,2.733
-14.683,-7.304,46.489,-1.878,-0.053,1.455
-20.043,1.037,56.307,-4.459,0.688,-0.818
-13.343,12.413,55.463,-5.643,1.212,-2.339
-11.01,18.541,43.362,-5.122,2.614,-2.697
-15.074,30.718,33.847,-2.264,1.777,-2.509
-12.055,23.957,21.689,0.02,-0.346,-2.109
-6.419,11.055,10.589,2.122,-1.044,-0.435
-11.863,-2.388,7.594,2.935,-0.026,0.691
-11.551,-9.013,9.425,2.545,0.69,0.894
-8.111,-8.383,8.66,1.98,2.086,0.31
-5.931,-5.23,5.807,2.127,3.327,0.689
-2.759,-2.496,4.975,2.483,3.763,1.563
-2.468,-0.693,3.886,3.124,2.233,2.375
-4.412,1.272,5.176,3.531,1.779,3.07
-5.758,2.915,8.041,3.492,0.127,3.433
-9.077,0.916,15.608,3.351,-1.582,3.548
-11.918,-8.364,26.083,1.634,-2.855,2.244
-17.575,-10.703,41.299,-0.939,-2.673,1.366
-24.373,-4.248,54.287,-3.47,-2.474,-0.94
-24.783,9.385,56.17,-5.723,-1.179,-2.452
-20.147,17.558,46.578,-6.206,-0.981,-3.988
-19.292,29.095,35.134,-3.936,-0.278,-3.436
-15.833,26.822,21.206,-1.309,0.014,-2.709
-9.315,15.901,8.811,1.101,0.702,-0.814
-7.16,-1.501,6.565,3.286,1.281,0.282
-8.193,-9.563,10.096,3.644,2.381,1.387
-6.729,-13.159,11.644,2.909,3.355,1.568
-3.068,-10.498,11.107,2.594,4.584,1.405
0.892,-7.906,9.031,2.604,4.165,1.929
1.686,-5.6,6.484,2.891,2.663,2.71
-0.623,-3.262,6.337,3.339,1.47,3.309
-2.837,-1.583,9.425,3.048,0.687,3.699
-8.095,-1.829,17.911,2.995,-1.333,3.592
-8.751,-12.346,30.68,0.705,-2.906,2.567
-18.361,-7.564,45.676,-1.767,-2.087,1.452
-26.057,5.176,52.017,-4.38,-0.696,-0.745
-19.718,15.093,49.402,-4.583,-0.543,-2.105
-14.943,20.945,39.039,-4.437,-0.149,-3.069
-17.615,31.769,29.07,-1.519,0.349,-2.321
-11.289,22.713,17.652,0.513,0.217,-2.124
-2.703,6.578,11.205,2.271,0.224,-0.576
-6.96,-5.094,10.388,2.27,1.095,0.252
-7.369,-10.224,11.555,1.896,2.429,1.079
-4.787,-10.229,8.498,1.015,4.143,1.155
-1.38,-5.624,5.028,1.29,4.406,1.949
0.027,-3.268,4.118,2.068,3.776,2.715
-0.392,-1.918,4.844,2.756,2.115,3.515
-4.191,-0.376,7.682,3.117,0.776,3.562
-5.585,0.048,11.729,2.724,-0.761,3.4
-9.132,-0.726,17.61,2.561,-2.495,2.7
-11.823,-8.527,24.024,1.538,-3.143,1.779
-14.939,-13.004,36.354,-0.933,-1.779,0.903
-22.143,-3.952,48.488,-3.324,-0.894,-0.925
-20.932,11.558,51.327,-4.364,0.39,-2.082
-17.097,18.59,43.846,-4.345,0.424,-3.194
-17.757,27.464,37.934,-2.502,0.72,-2.851
-16.388,27.579,28.384,-0.092,0.571,-2.558
-8.739,14.17,15.27,2.134,0.334,-0.947
-9.218,-3.369,10.587,3.32,1.223,-0.05
-9.443,-10.329,13.114,3.339,3.137,1.203
-6.127,-11.097,12.595,2.395,4.253,1.549
-2.819,-6.662,8.319,2.469,4.678,2.351
0.756,-2.8,7.336,2.724,4.529,3.413
-0.793,-0.505,7.901,3.206,1.738,4.26
-5.389,0.162,12.511,3.096,-0.406,4.653
-9.863,-4.622,16.296,2.038,-1.966,4.623
-12.773,-8.753,24.314,-0.447,-2.083,4.101
-16.266,-11.337,38.048,-2.928,-0.935,2.441
-22.055,3.761,50.466,-5.329,0.659,-0.13
-18.51,15.167,46.289,-6.802,1.851,-1.705
-16.724,25.604,39.429,-5.556,2.509,-2.886
-18.313,29.036,33.563,-2.811,1.846,-2.992
-18.515,29.81,22.864,-0.285,1.418,-2.521
-11.787,12.584,11.386,1.94,2.614,-0.64
-11.397,-0.583,12.626,3.82,3.616,0.699
-9.058,-7.588,16.283,3.729,4.406,1.846
-5.235,-8.957,14.936,3.62,4.805,2.18
-1.5,-9.149,10.675,3.479,4.464,3.151
-0.576,-8.701,6.543,3.433,2.453,3.778
-3.057,-6.686,6.339,2.803,1.016,3.991
-5.83,-5.022,9.342,1.97,-0.807,3.735
-7.241,-10.097,15.323,0.574,-1.433,3.425
-9.576,-11.115,27.609,-1.811,-1.991,2.527
-15.499,-4.623,43.219,-3.99,-0.882,0.807
-18.508,7.119,46.053,-5.838,-0.51,-1.619
-16.544,15.423,40.08,-5.864,0.18,-3.022
-17.298,24.091,31.437,-4.413,-0.439,-3.668
-18.297,24.261,22.346,-1.881,0.032,-3.25
-14.047,17.27,10.869,0.32,0.407,-2.349
-8.63,3.281,8.052,2.583,1.381,-0.641
-8.112,-6.107,11.644,3.338,2.806,0.545
-6.121,-8.674,15.16,3.218,4.821,1.194
-2.644,-6.824,12.924,3.338,5.615,1.678
-0.842,-5.26,8.924,3.778,4.785,2.665
-1.736,-3.037,6.071,4.003,3.725,3.866
-4.726,-1.753,5.663,3.968,2.603,4.353
-6.775,-0.645,7.769,3.232,0.442,4.346
-10.195,-4.305,12.633,2.527,-1.127,3.748
-12.183,-7.002,21.704,-0.115,-1.94,2.782
-14.401,-7.75,37.034,-2.602,-1.14,1.435
-18.775,3.884,50.132,-4.972,-0.889,-0.361
-18.451,14.985,48.226,-6.557,-0.247,-2.086
-17.422,24.991,40.285,-6.36,-0.377,-3.059
-17.993,28.692,31.898,-3.753,-0.178,-2.967
-17.41,27.658,18.83,-1.277,-0.406,-2.498
-10.931,14.015,7.408,1.057,0.561,-0.975
-9.253,0.8,8.13,3.147,1.366,0.496
-8.177,-5.857,11.326,3.534,2.426,1.445
-6.352,-7.132,11.753,3.649,3.773,1.72
-3.627,-5.627,10.22,3.942,3.987,2.335
-3.058,-3.833,8.119,4.329,2.442,2.716
-5.555,-1.74,8.009,4.615,0.834,2.726
-6.276,-1.684,10.749,3.899,0.621,2.937
-6.77,-3.542,16.251,2.987,-1.73,2.581
-8.044,-7.804,23.78,0.317,-3.171,2.251
-9.459,-9.24,35.874,-2.405,-1.941,1.817
-15.03,-1.936,47.358,-5.031,-0.408,0.317
-11.357,12.052,47.933,-6.065,-0.446,-1.42
-10.53,19.799,40.098,-5.553,0.029,-2.04
-12.269,24.018,33.073,-2.914,0.257,-1.673
-12.886,23.15,23.333,-0.285,-0.596,-1.744
-7.116,12.745,11.999,2.308,-0.386,-0.619
-10.008,-1.976,10.172,4.075,0.686,0.574
-10.638,-7.826,13.437,4.458,2.538,1.243
-8.131,-7.961,13.841,4.592,4.107,0.773
-5.123,-6.768,11.921,4.786,4.74,1.079
-3.219,-4.273,9.747,4.782,3.733,1.769
-3.345,-2.899,9.463,4.45,2.825,2.365
-3.735,-2.1,10.0,3.682,0.777,2.435
-4.581,-3.166,16.015,2.482,-1.096,3.056
-11.978,-10.443,24.414,0.077,-1.9,2.998
-16.221,-9.694,39.531,-2.512,-1.014,1.74
-26.454,2.224,51.908,-4.725,-0.82,-0.578
-23.229,17.413,54.07,-6.089,0.254,-2.367
-22.219,26.248,44.563,-5.796,0.669,-3.959
-17.044,35.23,33.917,-3.386,0.19,-3.893
-16.045,30.366,21.718,-0.645,-0.708,-2.842
-7.248,15.481,10.377,1.723,-0.438,-1.026
-9.823,-2.593,7.77,3.397,0.405,0.548
-10.276,-11.827,11.167,3.723,2.165,1.28
-8.089,-13.645,12.924,3.288,4.414,1.287
-3.014,-10.101,10.507,2.878,5.871,1.86
0.564,-7.189,7.284,2.751,5.134,2.76
1.098,-4.883,5.668,2.82,3.537,3.628
-0.783,-3.164,8.539,2.573,1.155,4.075
-4.978,-3.838,14.542,2.02,-1.505,4.19
-8.647,-8.119,22.497,0.529,-3.074,3.129
-15.336,-9.273,35.666,-1.711,-4.105,1.817
-23.827,0.082,49.441,-4.03,-3.762,-0.236
-23.531,10.542,45.836,-5.701,-2.541,-1.972
-18.739,17.663,37.257,-5.189,-1.731,-2.926
-19.93,23.887,29.99,-2.832,-2.102,-2.67
-16.981,22.614,19.664,-0.468,-0.504,-1.858
-10.113,11.274,8.186,1.871,1.075,-0.327
-8.126,-1.331,9.924,3.877,2.265,1.277
-9.496,-7.841,12.788,4.098,3.436,2.098
-6.129,-9.487,12.122,3.521,5.26,2.738
-3.471,-7.381,9.615,3.639,5.098,3.349
-2.148,-5.787,7.024,3.557,3.586,3.907
-5.153,-3.659,6.604,3.339,1.648,3.574
-5.56,-3.088,9.475,2.158,0.235,3.516
-8.438,-8.5,16.669,1.093,-2.409,2.922
-12.23,-9.76,30.855,-1.389,-3.147,2.618
-17.958,-2.988,46.108,-3.647,-2.006,0.729
-14.425,12.128,49.414,-5.313,-1.02,-1.143
-13.766,18.399,44.149,-4.013,-1.446,-2.687
-15.552,20.504,37.172,-2.971,-0.721,-1.713
-14.951,20.052,26.987,-1.181,1.216,-2.268
-9.587,12.113,13.934,0.492,1.527,-1.8
-9.252,-2.934,10.353,1.841,2.5,0.027
-8.227,-8.576,12.761,1.578,4.507,1.465
-3.356,-4.889,12.415,1.485,6.166,1.139
-0.244,-2.926,8.487,2.182,5.252,2.152
0.017,-1.449,5.895,2.962,4.197,3.924
-1.942,-1.164,4.415,3.302,2.91,5.081
-5.953,-0.294,5.966,2.833,1.465,5.356
-8.16,-0.388,10.99,2.072,-0.826,5.08
-11.936,-4.404,17.935,1.083,-2.61,3.945
-15.686,-7.435,30.057,-1.37,-3.271,3.004
-20.346,-1.625,45.014,-3.553,-1.83,0.824
-22.412,10.517,49.289,-5.514,-1.027,-1.266
-16.548,19.477,43.811,-5.41,-0.045,-2.67
-14.468,26.978,36.471,-3.553,0.234,-3.22
-15.176,25.232,27.174,-0.753,0.542,-2.98
-11.334,16.326,15.21,1.343,0.187,-1.931
-6.861,0.815,11.423,3.178,1.592,-0.55
-9.88,-8.41,13.836,3.2,3.386,0.679
-8.159,-11.618,14.987,2.192,4.782,1.599
-2.671,-7.282,12.975,1.857,6.002,1.866
0.252,-4.951,9.663,2.216,5.38,2.875
1.034,-2.648,5.541,2.632,3.658,4.09
-0.17,-2.1,4.397,2.81,1.833,4.69
-3.399,-1.818,8.056,2.236,-0.531,4.558
-8.081,-7.704,16.194,1.279,-2.381,4.027
-11.343,-10.071,29.484,-1.176,-3.969,2.893
-19.504,-4.353,45.634,-3.426,-2.978,1.461
-22.321,10.392,50.799,-5.474,-2.042,-0.544
-15.782,19.523,44.371,-4.949,-0.952,-1.513
-13.797,28.748,37.246,-3.076,-0.473,-1.342
-16.66,24.377,29.627,-0.245,0.546,-0.934
-10.559,16.266,17.304,1.732,0.217,-1.084
-7.893,0.508,12.115,3.52,1.008,-0.483
-11.207,-9.187,14.934,3.217,2.914,0.102
-8.307,-12.349,14.487,2.069,4.49,0.007
-1.847,-5.574,9.152,1.539,5.615,0.327
1.331,-3.463,5.715,1.743,5.081,1.779
1.655,-2.144,4.911,2.152,3.258,2.928
0.12,-1.677,5.995,2.187,1.172,3.611
-4.152,-1.103,10.003,2.046,-1.417,3.917
-8.486,-6.705,16.585,1.018,-2.287,4.044
-15.996,-8.312,27.881,-1.163,-2.34,2.815
-22.537,-3.687,42.129,-3.36,-1.488,0.349
-30.864,9.283,43.439,-5.39,-0.508,-1.745
-22.894,18.14,36.855,-5.015,0.439,-2.983
-20.92,26.808,29.684,-3.772,-0.48,-3.795
-19.316,25.768,23.04,-1.245,-0.471,-2.554
-13.314,18.158,11.166,0.955,-0.062,-0.874
-3.614,2.372,9.063,2.989,0.443,0.365
-7.786,-7.992,11.13,2.686,1.726,0.655
-6.259,-11.233,11.794,2.542,3.75,0.522
0.052,-9.594,8.75,2.313,4.431,0.069
0.984,-7.521,6.354,2.609,2.956,0.332
-0.16,-4.929,5.236,2.88,2.64,0.784
-0.302,-3.589,6.134,2.84,2.141,1.932
-3.106,-3.322,9.697,2.583,-0.049,3.063
-8.968,-4.056,15.815,1.5,-0.745,3.789
-12.459,-8.561,25.801,-0.996,1.005,3.593
-19.574,-3.954,38.888,-3.301,0.506,1.611
-26.989,9.103,42.776,-5.425,0.559,-0.802
-22.086,16.428,37.895,-5.569,0.925,-2.649
-20.852,21.009,29.446,-3.858,0.137,-4.186
-19.748,22.313,20.368,-1.617,-0.396,-3.527
-13.041,15.206,9.194,0.51,0.532,-1.58
-5.821,-0.094,6.107,2.518,1.376,-0.258
-7.544,-8.633,8.392,2.691,3.142,0.526
-3.484,-12.24,10.854,2.152,5.05,0.872
0.603,-9.41,9.901,2.203,5.762,0.71
2.907,-7.226,7.339,2.286,5.233,1.554
1.623,-4.394,6.005,2.546,3.094,2.388
-1.941,-2.756,5.232,2.494,1.943,3.033
-3.89,-1.347,5.966,2.123,0.482,3.8
-8.89,-1.462,11.05,1.904,-1.654,4.449
-13.037,-9.625,23.115,-0.307,-1.584,3.602
-19.118,-8.02,37.523,-2.575,-0.852,1.429
-22.762,6.362,44.11,-4.666,-0.564,-0.531
-18.81,15.645,40.963,-4.699,-0.708,-1.985
-18.054,19.377,35.618,-3.41,-0.742,-3.454
-19.386,22.122,26.767,-1.007,-1.061,-3.178
-13.472,17.34,14.259,0.945,0.512,-1.595
-6.508,1.201,9.306,2.73,1.757,-0.503
-8.643,-8.602,11.234,2.744,3.095,0.213
-5.71,-11.098,10.858,1.703,5.182,1.046
0.204,-5.499,8.425,1.638,5.726,1.608
2.147,-2.711,5.858,2.092,4.022,2.326
1.054,-0.898,4.978,2.568,1.757,3.424
-3.069,0.199,8.262,2.991,0.548,3.987
-6.575,-1.329,17.607,2.658,-1.828,3.997
-9.795,-6.932,27.57,0.805,-2.398,3.37
-18.265,-3.733,42.646,-1.601,-2.316,2.438
-24.786,2.998,52.997,-3.863,-1.579,-0.072
-24.268,16.011,54.491,-6.283,-0.08,-1.201
-17.922,23.462,43.679,-6.222,0.756,-2.308
-17.045,32.07,34.083,-3.792,0.392,-2.641
-11.104,25.306,21.323,-0.899,0.343,-1.843
-4.839,16.99,12.176,1.549,0.723,0.07
-2.633,0.008,8.821,4.09,0.051,0.663
-6.318,-7.899,11.63,4.572,1.191,1.586
-5.375,-12.183,11.087,4.394,2.364,1.88
-3.553,-9.897,8.564,4.397,3.024,1.554
-2.984,-9.139,6.464,4.579,3.61,1.792
-1.878,-6.14,5.871,4.347,3.226,2.311
-4.189,-2.637,8.705,4.128,1.49,2.47
-8.338,-0.211,15.451,3.542,-0.476,2.608
-9.529,-5.845,23.319,1.919,-0.517,2.721
-15.223,-6.773,35.595,-0.71,-1.254,2.165
-22.103,2.375,48.149,-3.019,-1.314,-0.285
-27.322,15.072,50.564,-5.331,0.288,-1.932
-19.75,22.12,42.035,-5.642,0.866,-3.2
-19.476,32.043,33.702,-4.098,0.234,-3.375
-16.643,30.495,23.761,-1.302,-0.73,-2.386
-12.628,20.144,12.018,1.103,-0.412,-0.428
-5.487,2.903,7.742,3.617,0.103,0.852
-9.47,-6.902,10.539,4.324,1.551,1.958
-9.136,-11.712,11.952,4.218,3.08,2.212
-5.308,-9.757,9.781,3.808,5.106,2.42
-3.097,-8.413,7.033,3.682,4.925,3.378
-4.109,-5.265,6.678,3.216,3.298,3.872
-6.424,-2.874,8.958,2.677,1.069,3.591
-8.425,-2.247,12.995,1.783,-1.253,3.13
-12.884,-9.621,19.511,0.197,-3.564,1.866
-18.839,-9.746,32.436,-2.081,-2.899,0.609
-22.809,-3.523,41.62,-4.129,-1.31,-1.623
-19.829,10.757,45.491,-5.812,1.024,-2.683
-14.566,17.718,39.072,-5.459,1.16,-3.898
-12.333,26.715,31.101,-3.02,1.299,-3.758
-8.767,23.1,20.765,-0.522,0.706,-3.435
-3.789,15.283,11.813,1.768,-0.221,-1.498
-4.323,-1.359,5.339,3.58,-0.442,-0.417
-6.921,-8.539,7.391,3.838,1.306,1.036
-5.53,-10.173,8.634,3.262,3.114,1.566
-3.038,-7.662,6.136,3.29,3.398,2.41
-3.411,-7.313,3.912,3.502,3.765,3.095
-4.507,-5.612,3.441,3.755,3.338,3.862
-5.362,-3.293,5.212,3.13,2.93,4.249
-9.033,1.729,9.922,2.466,0.18,3.585
-11.664,2.477,18.007,1.318,-1.919,3.405
-15.159,-2.497,26.144,-1.184,-1.775,2.947
-19.06,0.045,40.321,-3.573,-1.226,1.117
-25.411,6.756,50.449,-5.377,-0.627,-1.345
-18.093,18.624,52.287,-6.791,1.716,-2.44
-13.414,26.729,42.063,-6.32,2.845,-3.671
-10.49,34.538,35.411,-3.172,2.046,-3.5
-8.209,29.071,24.645,-0.245,-0.061,-2.004
-2.934,18.328,14.364,2.274,-0.48,-0.375
-6.872,0.401,9.111,4.139,-0.152,0.696
-9.637,-8.782,12.517,4.834,0.967,1.057
-8.163,-12.041,11.478,4.173,2.433,0.868
-4.55,-10.426,7.375,3.711,4.197,1.194
-2.884,-8.15,6.776,3.611,3.61,2.16
-5.716,-4.727,9.57,3.481,1.463,2.631
-8.978,-3.681,16.088,3.29,-0.474,2.667
-8.863,-12.578,28.655,0.803,-1.881,1.939
-19.346,-6.938,44.214,-1.663,-1.582,0.154
-28.616,5.522,52.511,-4.081,-1.576,-2.441
-23.203,16.482,50.712,-5.572,0.06,-3.441
-18.549,21.488,41.847,-5.979,1.045,-4.139
-19.378,32.915,29.195,-3.346,0.753,-3.708
-10.379,25.713,14.914,-0.918,-0.573,-2.266
-3.276,12.359,4.493,1.525,-0.38,-0.107
-6.498,-1.772,2.58,2.966,0.764,0.869
-6.696,-6.943,4.737,3.33,2.203,2.604
-6.274,-7.388,4.263,3.295,3.119,3.817
-6.046,-4.511,3.756,3.385,3.734,4.904
-6.896,-1.808,6.845,3.699,2.361,5.332
-10.766,0.535,11.675,3.956,0.19,5.385
-14.196,-1.857,19.992,3.917,-1.401,4.301
-18.968,-12.06,34.542,1.318,-3.384,2.85
-28.024,-5.8,49.331,-1.199,-1.976,0.218
-37.381,6.424,54.397,-3.957,-0.462,-2.287
-25.906,16.294,49.642,-4.649,0.094,-3.566
-23.144,23.85,40.169,-4.569,-0.007,-3.888
-20.099,33.369,28.736,-1.572,0.858,-3.271
-13.066,24.441,14.468,1.032,-1.197,-2.004
-1.643,8.364,8.418,3.434,-0.231,0.121
-8.701,-5.014,8.261,4.223,0.272,1.573
-10.276,-10.633,9.287,4.607,1.917,2.51
-7.385,-12.015,6.251,3.973,4.094,3.473
-4.852,-8.967,5.688,3.673,4.643,4.308
-5.066,-5.894,6.135,3.416,2.885,4.753
-9.782,-0.414,10.45,3.206,1.912,4.391
-12.925,-2.375,22.089,2.614,-1.032,3.719
-20.218,-7.626,37.593,0.25,-2.734,1.717
-4.722,-12.292,5.537,0.087,1.748,0.375
0.711,-7.654,4.333,0.21,2.141,0.794
0.226,-9.599,3.995,0.581,3.079,1.34
1.277,-10.773,3.706,1.127,4.079,2.233
1.504,-11.306,4.321,1.845,4.166,3.041
2.45,-7.07,1.246,2.223,3.031,3.605
1.732,-4.646,0.7,2.382,3.32,4.2
0.583,-2.108,4.261,2.627,1.828,5.048
-11.92,0.404,13.351,3.064,-0.918,4.572
-15.907,-10.571,22.809,0.902,-2.153,3.57
-25.625,-8.986,36.333,-1.31,-1.148,1.951
-38.539,-1.709,48.032,-3.36,-2.426,-0.808
-36.906,13.388,50.527,-5.085,-1.08,-3.169
-25.949,18.784,41.3,-6.135,0.188,-4.124
-24.375,31.346,30.894,-3.69,0.922,-3.707
-18.094,25.112,18.924,-1.248,-1.103,-2.668
-8.459,14.283,9.05,0.884,0.518,-0.676
-8.726,-5.417,5.807,2.128,0.874,0.644
-10.121,-14.867,7.561,2.376,2.452,1.618
-7.136,-18.983,10.17,1.415,4.612,2.224
-1.644,-15.347,9.004,0.887,5.833,3.048
2.812,-12.425,7.459,0.786,4.443,3.84
3.84,-8.865,5.065,0.948,2.97,4.403
6.146,-6.836,5.099,1.171,1.262,4.865
3.871,-3.613,9.698,1.648,-2.231,5.073
-3.462,-5.892,22.643,1.562,-4.79,4.337
-6.948,-10.185,34.317,-0.467,-4.518,4.257
-10.46,-4.419,49.925,-2.511,-2.917,3.051
-19.363,9.235,59.321,-4.662,-2.053,0.927
-16.664,18.404,52.681,-5.414,-0.852,-1.075
-13.495,23.65,38.351,-4.58,1.237,-1.155
-15.883,22.234,28.917,-2.41,2.812,-1.891
-13.98,14.098,13.731,-0.676,1.648,-1.338
-8.908,-2.354,4.685,1.056,2.995,-0.11
-8.849,-13.343,6.426,1.055,5.287,1.471
-6.746,-16.315,8.863,0.134,5.901,2.101
-1.548,-11.229,7.16,-0.431,5.449,3.28
-0.116,-8.622,7.195,-0.455,5.731,4.445
4.059,-5.897,6.143,-0.583,4.169,5.808
2.886,-4.418,6.031,-0.326,1.07,6.466
-0.808,-2.394,12.624,-0.051,-1.633,6.118
-6.793,-3.009,19.972,0.1,-3.877,5.139
-8.279,-7.209,29.495,-0.86,-5.652,3.855
-13.358,-5.957,42.198,-2.465,-4.803,3.411
-22.155,2.907,53.798,-4.231,-2.648,0.418
-18.277,13.511,49.547,-5.581,-0.452,-1.833
-12.899,19.698,40.427,-5.446,0.733,-2.85
-12.631,22.921,30.449,-3.993,1.954,-2.629
-9.32,20.219,18.175,-1.758,0.957,-3.166
-2.582,9.708,5.434,0.341,0.419,-0.889
-3.908,-2.685,2.526,1.795,1.179,1.413
-4.954,-8.13,4.963,2.27,2.308,3.014
-5.741,-6.889,6.256,2.658,2.983,3.993
-6.132,-4.289,6.535,3.005,3.208,5.124
-5.995,-1.674,8.006,3.496,2.426,5.913
-9.958,0.224,11.251,4.01,0.677,5.703
-14.312,2.071,13.462,3.579,-0.587,5.071
-17.094,0.492,14.109,2.372,-0.563,3.792
-18.189,-8.701,14.336,0.551,-0.739,2.137
-21.008,-13.459,18.753,-2.039,0.456,-0.459
-24.132,-10.996,25.514,-4.676,0.891,-2.712
-17.138,0.397,26.929,-5.565,1.452,-4.301
-13.823,5.618,24.815,-5.001,0.272,-4.936
-13.066,13.764,23.927,-3.752,-0.097,-4.016
-11.391,15.984,18.094,-1.704,-1.567,-2.397
-7.09,10.562,8.587,0.304,-1.269,-0.676
-10.077,-3.312,4.69,1.175,-0.636,0.714
-11.356,-10.486,6.472,1.341,0.584,1.449
-10.712,-12.426,7.533,1.303,2.314,0.858
-8.994,-13.443,7.684,1.347,3.846,0.358
-5.541,-12.73,7.435,1.337,4.529,0.093
-4.585,-11.802,6.531,1.51,4.295,-0.401
-2.462,-8.938,5.893,1.622,4.416,-0.801
-1.601,-6.648,5.347,1.993,3.452,-1.098
-0.993,-4.53,6.124,2.215,2.9,-0.959
-1.646,-3.642,6.329,2.574,2.266,-0.573
-3.546,-4.199,7.263,2.813,2.149,-0.166
-6.812,-5.822,8.528,2.737,3.195,0.139
-5.429,-8.192,8.316,2.353,3.853,0.714
-6.162,-10.003,7.442,2.028,2.422,0.817
-6.47,-11.355,6.154,1.464,1.265,0.669
-5.826,-11.612,5.079,0.886,0.96,0.494
-3.048,-10.809,3.473,0.463,-0.205,0.32
-4.79,-9.453,2.568,0.314,-1.292,-0.298
-4.635,-8.571,1.821,0.136,-0.075,-0.564
-3.963,-7.944,1.899,0.161,0.941,-0.631
-3.255,-7.781,1.354,0.194,0.655,-0.598
-3.337,-7.631,0.86,0.273,0.016,-0.504
