ax,ay,az,gx,gy,gz
13.366,-8.969,0.205,0.758,0.34,-0.616
13.211,-9.561,0.867,0.428,-0.355,0.305
10.375,-9.384,1.626,-0.015,-1.066,1.049
6.698,-8.138,2.251,-0.34,-0.797,1.376
5.113,-7.854,2.675,-0.511,-0.303,1.275
5.423,-7.627,2.198,-0.621,-0.206,1.054
5.262,-7.637,1.208,-0.641,0.071,0.832
6.087,-7.723,0.194,-0.566,0.652,0.576
7.488,-8.026,-0.214,-0.484,0.561,0.355
7.815,-7.705,-0.356,-0.433,0.132,0.225
6.145,-7.731,-0.248,-0.331,0.144,0.023
4.93,-6.711,-0.324,-0.319,0.36,-0.518
2.425,-2.457,-0.837,-0.302,0.135,-1.83
0.217,4.931,-1.092,0.232,0.773,-3.536
-1.444,15.546,-0.996,1.313,1.902,-5.228
6.134,30.589,5.883,3.092,3.701,-6.655
17.458,34.309,16.035,4.847,5.278,-6.203
27.618,31.844,25.244,4.827,3.963,-3.981
35.2,27.513,36.45,3.34,2.155,-0.489
39.642,25.425,51.894,0.57,-0.387,3.004
35.987,24.315,60.642,-2.922,-3.482,6.255
28.052,35.454,61.511,-6.329,-5.43,7.93
23.461,47.832,53.205,-7.97,-3.807,8.428
19.069,56.627,36.801,-6.954,-2.261,7.486
17.652,54.502,17.498,-4.151,0.16,6.078
18.353,42.396,2.077,-1.072,1.581,4.176
19.798,26.978,-5.924,1.443,1.126,2.403
18.077,13.292,-3.015,3.665,0.143,1.251
16.389,2.428,4.599,3.892,-0.725,0.826
13.495,-3.237,9.159,3.131,-1.741,0.758
8.622,-4.659,8.745,2.198,-1.843,0.965
4.352,-5.162,5.466,1.896,-1.284,0.825
2.96,-4.892,1.965,1.953,-0.581,0.215
2.117,-0.815,-1.027,2.393,-0.651,-1.597
0.56,7.67,-1.256,3.837,0.084,-3.614
4.235,21.837,7.751,5.183,1.861,-5.333
17.956,25.604,24.019,6.463,2.056,-5.106
27.245,20.209,33.926,5.546,2.004,-3.981
34.921,17.426,48.177,3.145,0.88,-0.801
40.861,20.13,63.149,-0.341,-1.202,2.692
43.667,21.175,69.977,-3.833,-3.786,6.107
33.361,31.845,61.88,-7.326,-3.624,7.792
28.519,49.589,49.866,-8.267,-3.508,8.013
21.611,56.543,31.88,-6.11,-1.712,6.752
20.913,49.041,14.522,-3.101,0.996,5.388
19.308,34.169,-0.524,-0.238,1.632,3.568
19.387,20.674,-5.972,2.264,0.448,1.885
16.03,7.849,-1.522,4.012,-0.327,1.116
16.529,-0.351,4.836,3.922,-1.189,0.998
12.568,-3.974,7.607,3.048,-2.913,0.856
6.888,-4.424,7.649,2.342,-2.863,0.904
3.097,-5.967,5.05,2.044,-1.903,0.667
1.976,-6.974,1.669,2.022,-1.355,0.243
2.961,-8.169,0.718,2.011,-1.1,-0.199
2.933,-7.142,-0.284,1.697,-1.329,-1.362
0.277,0.762,-0.464,1.496,-1.167,-3.082
-0.574,12.055,1.059,2.011,0.061,-4.655
5.076,27.316,15.956,3.281,1.787,-5.828
14.896,27.351,30.838,3.597,0.485,-5.261
28.355,22.877,40.331,2.745,0.864,-2.973
35.873,20.155,55.406,0.79,-0.459,0.52
38.024,19.789,70.027,-1.93,-2.906,4.012
33.954,20.887,72.41,-5.422,-5.545,7.076
25.399,35.284,63.05,-7.868,-3.275,7.96
19.402,50.561,50.632,-8.264,-2.876,7.534
17.069,53.484,30.805,-6.094,-1.208,6.546
19.651,47.554,13.562,-3.265,0.472,5.271
21.141,32.774,-1.224,-0.385,0.866,3.571
21.497,19.632,-5.321,2.026,-0.414,2.302
16.726,8.306,-0.109,3.696,-1.264,1.574
15.529,0.625,5.97,3.691,-2.297,1.058
11.182,-3.285,8.802,2.95,-3.408,0.651
6.38,-4.475,7.917,2.232,-3.206,0.392
3.09,-5.812,4.902,2.124,-2.535,-0.095
1.87,-7.373,2.615,2.298,-1.741,-0.62
2.356,-7.656,0.992,2.388,-1.018,-1.226
3.014,-5.649,-0.759,2.435,-0.841,-2.377
1.109,3.318,-0.164,2.921,-0.622,-3.91
0.319,15.153,3.043,3.907,1.027,-5.276
5.123,31.827,17.283,4.981,2.816,-6.026
12.596,34.638,30.97,4.924,1.936,-5.688
22.15,28.213,39.477,3.607,2.655,-4.171
32.17,22.243,53.657,0.959,0.987,-0.678
37.27,19.405,66.922,-2.33,-1.718,2.814
33.459,18.48,68.271,-5.823,-4.177,5.546
26.163,32.546,66.284,-8.019,-4.317,6.633
19.121,50.974,59.742,-8.838,-4.219,7.392
14.41,58.636,40.319,-7.174,-2.222,6.411
12.078,55.811,21.0,-4.373,0.143,5.284
15.931,42.209,5.021,-1.229,1.362,3.869
18.775,25.286,-4.662,1.348,1.607,3.105
19.101,11.204,-3.707,3.527,0.67,2.48
16.966,1.807,2.664,3.824,-0.675,2.196
13.584,-3.185,7.0,2.996,-2.632,1.772
7.576,-3.866,7.451,1.926,-3.31,1.431
4.177,-3.523,4.634,1.545,-2.695,0.834
1.947,-4.441,2.155,1.757,-2.142,0.025
2.489,-4.887,0.345,2.09,-1.304,-0.756
3.317,-3.248,-0.651,2.32,-1.155,-2.063
1.202,4.118,-0.475,2.823,-0.591,-3.723
1.941,16.012,3.023,4.121,0.872,-5.168
8.526,30.417,15.804,5.222,2.63,-5.988
17.346,30.437,29.841,5.171,1.355,-5.378
30.157,26.267,40.808,3.752,0.88,-2.885
38.009,23.745,56.16,1.175,-0.7,0.607
40.552,23.882,68.941,-2.318,-3.283,4.1
38.945,27.144,71.881,-5.81,-6.502,6.91
29.305,42.459,60.87,-7.983,-5.152,8.347
19.431,55.912,46.434,-7.423,-3.716,7.977
15.373,57.382,26.806,-5.105,-1.706,6.734
15.334,48.203,8.951,-2.353,0.275,5.044
14.198,31.576,-6.386,0.396,1.573,3.172
17.202,16.143,-7.882,2.734,1.386,1.503
16.458,5.028,-2.257,3.613,0.39,0.801
15.71,-1.512,2.66,3.43,-1.018,0.611
11.63,-4.068,5.417,2.807,-2.369,0.641
6.704,-4.023,5.256,2.287,-2.387,0.618
4.218,-5.027,3.717,2.251,-1.627,0.399
3.841,-6.551,2.343,2.341,-1.21,0.074
3.732,-8.351,1.475,2.165,-0.769,-0.314
4.482,-9.209,0.822,1.868,-0.205,-0.569
5.215,-7.568,0.125,1.364,-0.347,-1.319
0.831,2.106,0.609,1.217,-0.839,-2.923
-1.738,14.435,1.686,1.865,1.11,-4.654
5.009,29.927,16.346,3.397,3.001,-5.709
14.545,29.452,32.097,3.63,1.298,-4.9
27.803,25.767,45.973,2.305,0.468,-2.323
31.894,27.78,61.256,0.079,-1.075,1.17
34.792,32.341,75.376,-2.881,-4.217,4.662
30.882,35.087,74.206,-6.374,-6.948,7.538
23.857,49.892,61.441,-8.438,-4.904,8.539
14.296,62.684,44.195,-7.603,-3.676,7.82
14.616,58.351,24.627,-5.241,-1.528,6.484
16.505,46.015,7.376,-2.344,0.738,4.859
17.864,29.013,-5.282,0.425,1.465,2.867
18.202,15.97,-6.174,2.758,0.567,1.224
16.603,5.371,-0.51,3.71,-0.136,0.534
16.349,-0.685,4.441,3.463,-1.301,0.338
12.502,-3.786,6.547,2.77,-2.53,0.344
7.881,-3.664,5.84,2.262,-2.518,0.54
5.449,-5.242,3.209,2.258,-1.873,0.421
4.151,-5.527,0.927,2.462,-1.686,-0.035
3.587,-4.538,-0.721,2.674,-1.54,-1.007
2.094,0.505,-0.872,2.97,-1.385,-2.88
1.697,9.63,0.956,3.891,-0.148,-4.576
2.177,22.615,9.829,5.053,1.553,-5.943
8.052,27.412,22.144,6.092,3.035,-6.09
13.734,25.078,30.722,5.946,3.609,-5.082
24.285,17.931,38.42,4.383,3.027,-2.456
28.129,12.127,50.259,1.202,0.727,0.811
28.687,6.487,57.673,-2.29,-1.978,3.894
24.513,13.626,61.542,-5.721,-4.05,5.603
23.489,27.445,65.318,-7.901,-4.641,6.855
19.957,41.794,61.15,-8.838,-3.636,7.403
21.108,49.736,43.81,-7.804,-2.4,6.931
20.067,50.798,23.572,-5.449,-1.023,5.923
20.27,42.909,5.368,-2.451,0.61,4.726
20.723,30.915,-5.504,0.511,1.058,3.129
19.461,19.392,-6.763,3.058,0.253,1.75
16.921,9.216,-0.126,4.373,-0.436,0.99
16.0,2.027,6.831,4.197,-1.57,0.55
12.285,-2.114,10.891,3.378,-2.498,0.315
7.151,-4.307,10.116,2.72,-2.271,0.27
3.78,-7.248,7.14,2.458,-1.66,0.196
2.189,-8.974,3.377,2.253,-1.155,-0.155
2.206,-7.03,-0.235,2.162,-0.565,-1.218
1.048,1.168,-1.283,2.797,-0.139,-2.91
1.782,12.136,0.588,3.985,0.408,-4.516
8.115,26.769,15.692,5.193,2.128,-5.003
16.872,28.264,29.998,5.391,1.342,-4.486
25.622,22.76,40.125,4.178,0.852,-2.675
31.265,17.576,54.644,1.365,-0.71,0.817
31.523,16.264,68.332,-2.128,-2.719,4.216
28.771,17.129,69.229,-5.62,-5.477,6.36
22.897,29.5,63.209,-7.963,-4.48,7.499
19.912,43.963,54.244,-8.366,-3.163,7.877
19.815,49.694,35.08,-6.664,-1.776,6.869
21.147,46.28,15.451,-4.02,0.172,5.628
21.027,34.026,-0.864,-1.023,1.34,3.982
22.606,21.091,-6.586,1.441,0.549,2.301
19.517,10.55,-3.606,3.305,-1.038,1.12
16.997,2.439,2.796,3.848,-1.517,0.63
14.719,-2.017,8.681,3.341,-2.794,0.319
9.543,-3.866,10.333,2.535,-3.041,0.216
5.086,-5.337,8.066,2.345,-2.035,0.153
3.021,-7.179,4.356,2.38,-1.312,-0.043
2.387,-6.87,1.354,2.366,-0.84,-0.774
1.185,-1.057,-1.095,2.814,-0.322,-2.622
2.612,7.695,-0.106,3.941,0.129,-4.251
4.513,20.663,8.138,5.159,1.705,-5.54
13.601,23.504,21.758,5.947,1.874,-5.383
19.39,17.421,29.583,5.466,2.346,-4.376
27.16,11.107,39.78,3.652,1.051,-1.256
28.427,8.32,53.151,0.334,-0.442,1.898
29.21,5.827,60.863,-3.158,-3.449,4.827
22.557,18.66,63.658,-6.317,-4.522,6.519
20.277,36.534,64.583,-8.068,-4.658,7.742
20.601,48.428,53.064,-8.363,-2.792,7.629
20.931,51.93,32.23,-6.344,-1.72,6.801
21.095,46.993,13.377,-3.447,0.343,5.642
23.376,32.457,-1.586,-0.535,0.864,3.742
23.601,20.258,-6.767,2.014,-0.204,1.952
19.318,8.806,-2.157,3.784,-1.404,1.028
17.715,0.749,5.455,3.858,-2.19,0.727
13.932,-3.035,10.075,3.0,-3.599,0.428
7.855,-3.69,10.243,2.248,-3.136,0.382
3.84,-5.979,7.165,1.949,-2.018,0.202
2.146,-7.572,3.695,1.861,-1.552,-0.184
1.331,-7.952,0.754,1.821,-0.858,-0.848
1.007,-4.443,-1.379,1.943,-0.471,-2.382
0.014,4.72,-0.958,2.755,0.401,-3.929
0.982,18.378,4.262,3.998,1.853,-5.452
9.197,26.226,18.958,5.332,3.893,-5.727
16.082,25.19,30.119,5.528,3.19,-5.078
26.345,18.398,39.201,4.497,2.489,-2.593
31.45,12.695,53.382,1.525,0.409,0.673
32.068,8.489,64.108,-1.967,-2.448,3.946
26.145,17.312,65.788,-5.46,-5.563,5.739
21.973,33.568,65.344,-7.709,-5.081,7.153
17.273,49.801,57.312,-8.682,-3.749,7.678
17.056,56.531,37.575,-7.084,-2.439,7.023
17.541,54.626,17.989,-4.582,-0.64,5.962
18.186,41.71,1.283,-1.71,0.829,4.434
20.004,26.403,-6.694,1.024,0.74,2.558
18.385,13.266,-4.136,3.217,-0.332,1.14
16.578,3.393,2.042,3.719,-0.89,0.651
14.348,-2.221,7.123,3.202,-2.138,0.532
9.883,-5.155,8.473,2.324,-2.47,0.806
5.61,-5.596,5.138,1.543,-1.987,1.042
1.864,-4.137,0.193,1.535,-1.335,0.486
1.228,-0.817,-1.974,1.954,-1.144,-0.928
-0.138,5.463,-2.554,2.931,-0.469,-3.021
2.017,17.196,1.087,4.428,0.943,-4.981
5.211,29.258,12.1,5.969,2.668,-6.317
14.363,32.188,24.562,6.871,2.895,-5.939
18.226,29.186,31.775,6.731,3.683,-4.745
28.198,21.294,38.87,4.998,2.736,-2.035
31.577,12.711,47.551,1.505,0.519,1.175
31.225,8.086,53.6,-1.987,-2.609,3.993
25.995,17.784,58.841,-5.231,-4.448,5.702
24.291,33.687,64.557,-7.61,-5.931,7.292
18.315,49.155,59.088,-8.83,-5.141,8.074
14.95,56.498,42.257,-7.194,-3.99,7.668
13.793,55.401,23.619,-4.612,-1.876,6.614
15.075,43.773,7.408,-1.658,0.119,5.068
16.538,27.47,-3.495,0.98,0.826,3.243
16.591,13.723,-3.573,3.212,0.487,1.654
16.559,3.512,2.149,3.642,-0.058,1.013
14.856,-2.709,5.851,3.023,-1.263,0.907
9.952,-5.27,5.993,2.03,-1.921,1.033
4.51,-3.858,2.408,1.678,-1.808,0.904
3.292,-2.779,-0.287,1.995,-1.351,0.483
2.061,0.33,-1.726,2.462,-1.785,-1.144
0.861,7.34,-1.615,3.301,-1.007,-3.252
3.633,17.653,5.169,4.559,0.991,-5.196
12.295,24.852,16.299,5.765,2.649,-5.506
13.148,28.206,25.564,6.291,3.193,-5.718
21.796,20.449,33.749,6.268,4.968,-3.745
29.454,11.543,41.05,4.617,3.958,-0.848
30.691,4.006,47.533,1.398,1.08,2.43
26.561,2.354,53.924,-2.094,-1.542,4.361
28.342,11.138,60.892,-5.177,-3.62,6.416
23.586,31.842,64.527,-7.688,-5.418,7.401
21.09,47.571,58.974,-8.799,-4.351,7.992
20.816,55.671,42.866,-7.521,-3.359,7.423
18.776,56.233,23.011,-5.259,-1.52,6.611
18.141,46.526,5.298,-2.462,0.274,5.189
18.098,31.59,-5.539,0.447,1.019,3.293
17.933,18.21,-4.835,3.009,0.084,1.693
15.866,7.633,1.303,4.076,-0.421,1.11
14.188,0.315,7.124,3.918,-1.558,0.779
10.156,-3.775,9.732,3.169,-2.016,0.782
6.471,-4.755,7.823,2.422,-2.123,0.918
2.188,-4.846,3.038,2.3,-1.761,0.402
1.537,-3.617,0.129,2.575,-1.433,-0.763
0.819,1.38,-1.171,3.139,-1.164,-2.779
2.479,10.603,1.345,4.212,-0.171,-4.686
6.006,20.26,10.966,5.544,1.829,-5.849
14.099,22.221,23.06,6.231,2.895,-5.221
19.536,14.909,31.429,5.681,3.642,-3.9
26.666,8.442,39.708,3.855,2.818,-1.074
28.233,4.062,50.439,0.733,0.983,2.241
26.072,0.796,57.327,-2.759,-1.613,4.758
21.041,11.001,62.389,-5.926,-3.647,5.747
19.241,31.437,64.22,-7.996,-4.611,6.687
17.864,45.506,55.881,-8.668,-3.269,7.048
17.887,50.813,38.189,-6.978,-2.285,6.296
17.766,50.656,19.392,-4.407,-0.502,5.444
19.3,41.429,2.803,-1.385,1.169,4.32
20.355,27.122,-5.638,1.487,1.35,2.837
19.298,15.045,-2.882,3.824,0.559,1.709
17.706,5.385,3.537,4.334,-0.214,1.394
15.842,-0.598,7.752,3.813,-1.85,1.204
11.425,-3.458,8.916,2.918,-2.942,1.115
5.789,-3.752,6.958,2.269,-2.922,0.868
2.708,-3.37,3.9,2.179,-2.605,0.101
1.77,-1.819,1.397,2.567,-2.007,-1.183
1.151,3.371,0.763,3.397,-1.256,-3.112
2.736,11.924,3.364,4.763,0.097,-4.89
8.459,22.807,14.41,6.033,2.208,-5.49
15.556,25.425,27.146,6.922,2.577,-5.244
24.936,18.845,36.168,6.031,2.722,-4.154
33.464,12.912,47.914,3.733,1.152,-0.918
35.812,13.206,60.737,0.241,-0.951,2.575
33.79,14.791,65.573,-3.252,-3.726,5.178
30.953,27.479,68.136,-6.559,-4.734,7.016
25.134,46.947,63.672,-8.255,-4.484,8.369
21.97,58.177,49.394,-7.575,-2.484,8.06
22.124,55.565,30.593,-5.358,-0.273,7.194
22.573,46.233,13.123,-2.608,1.011,5.729
22.329,30.272,-1.423,0.185,1.617,4.068
21.729,15.692,-3.55,2.507,0.536,2.403
19.291,5.131,0.546,3.449,-0.4,1.372
16.374,-0.802,4.945,3.323,-2.082,0.67
12.771,-3.43,7.392,2.809,-2.863,0.478
8.645,-3.366,7.538,2.37,-3.118,0.421
6.402,-3.363,5.724,2.429,-2.756,0.294
4.166,-4.117,4.095,2.717,-2.577,-0.219
3.752,-3.841,2.779,3.067,-1.856,-0.995
2.512,0.926,2.164,3.395,-1.57,-2.83
2.227,9.014,3.219,4.394,-0.213,-4.488
3.669,21.511,12.475,5.505,2.011,-5.665
12.218,25.18,25.928,6.36,2.528,-5.354
20.531,18.913,35.713,5.5,2.695,-4.299
27.928,13.69,50.533,3.111,1.296,-0.807
28.897,15.459,64.273,-0.241,-1.051,2.686
31.133,17.039,70.034,-3.734,-4.329,5.666
28.358,29.206,69.453,-7.082,-5.392,7.349
22.492,49.548,62.265,-8.421,-5.732,8.564
17.204,59.913,44.101,-7.037,-3.451,7.948
18.522,56.715,24.533,-4.745,-1.42,6.581
16.513,46.651,6.841,-2.041,0.567,4.742
15.341,32.027,-5.191,0.948,1.608,2.578
17.129,16.85,-4.578,3.339,1.489,0.881
18.178,6.403,1.233,4.154,0.352,0.142
16.115,-0.575,6.458,4.038,-0.653,0.139
13.27,-4.555,9.215,3.497,-1.579,0.536
8.704,-5.64,7.963,2.746,-1.877,0.988
5.164,-6.598,4.504,2.451,-1.618,1.084
2.726,-7.71,2.056,2.28,-1.336,0.552
2.009,-6.132,0.775,2.134,-0.868,-0.632
0.326,0.867,0.539,2.429,-0.045,-2.609
0.78,9.971,2.077,3.378,1.012,-4.389
2.298,23.591,10.516,4.534,2.89,-5.976
12.315,27.5,21.96,5.771,2.243,-6.102
21.643,25.05,30.366,5.389,2.696,-4.431
29.991,21.236,40.992,3.427,1.368,-0.938
31.317,21.581,54.323,0.239,-0.711,2.555
31.372,23.268,61.643,-3.254,-3.472,5.817
24.749,36.448,60.372,-6.696,-3.889,7.473
15.721,50.445,52.288,-8.316,-4.333,7.998
9.254,57.659,37.5,-7.477,-3.612,6.996
7.747,55.242,19.293,-5.319,-1.776,5.771
7.917,45.145,2.5,-2.699,0.055,4.229
8.787,30.597,-6.892,0.13,1.384,2.726
11.859,17.729,-4.867,2.773,1.047,1.252
14.465,6.77,0.974,3.945,1.053,0.701
15.533,-0.518,5.868,4.086,-0.166,0.409
13.311,-5.207,7.942,3.641,-1.506,0.366
9.344,-7.785,7.753,3.018,-2.029,0.47
6.681,-8.193,5.503,2.585,-2.057,0.345
3.722,-8.432,3.597,2.426,-1.922,-0.187
2.076,-6.046,2.179,2.42,-1.362,-1.309
-0.547,1.772,2.011,3.034,-0.249,-3.167
0.256,11.924,4.606,4.271,1.418,-4.905
3.88,23.742,14.604,5.526,3.476,-5.599
11.323,28.175,26.185,6.014,3.175,-5.578
20.841,24.719,33.628,5.122,2.707,-4.358
30.049,18.879,42.557,3.187,0.918,-0.916
30.035,18.371,54.989,-0.257,-1.098,2.577
25.327,21.027,60.518,-3.75,-3.669,4.982
20.214,34.112,64.335,-6.585,-4.285,6.163
13.458,51.82,64.026,-7.986,-4.148,7.171
12.212,63.948,52.367,-8.362,-2.961,6.741
11.805,64.254,31.318,-6.375,-1.567,5.873
16.24,54.884,12.117,-3.649,-0.107,4.769
18.015,39.681,-3.689,-0.601,0.764,3.739
19.726,23.755,-8.25,2.079,0.452,2.272
16.032,10.886,-3.218,3.998,-0.28,1.112
16.132,2.099,3.957,4.218,-1.182,0.476
12.603,-2.823,8.643,3.632,-2.077,0.238
8.925,-4.972,9.051,2.762,-2.016,0.484
5.421,-5.098,5.809,2.335,-1.708,0.526
2.7,-5.228,2.445,2.354,-1.078,-0.146
1.733,-1.628,0.581,2.606,-0.857,-1.787
0.636,6.976,1.282,3.662,0.165,-3.692
3.205,19.308,7.328,4.977,1.598,-5.518
9.406,29.018,18.175,6.216,3.155,-6.466
18.979,29.256,28.089,6.595,3.766,-6.051
30.829,24.358,36.656,5.496,3.701,-3.47
37.057,22.056,49.422,2.299,1.883,0.023
36.835,21.585,58.774,-1.194,-0.548,3.515
33.422,27.416,64.154,-4.686,-2.718,6.302
30.154,43.376,68.755,-7.48,-3.538,8.115
23.46,60.379,65.081,-8.838,-2.894,8.522
22.55,66.537,46.298,-7.724,-1.44,7.914
23.266,62.706,25.773,-5.415,0.455,6.804
24.039,50.505,7.913,-2.602,1.367,4.974
23.239,34.593,-3.996,0.268,1.385,3.001
22.167,19.046,-4.567,2.736,0.352,1.513
19.015,6.595,2.321,3.81,-0.498,0.762
15.979,-0.522,8.533,3.578,-1.938,0.433
11.646,-3.841,11.084,2.957,-2.346,0.657
6.915,-4.691,9.009,2.407,-2.46,0.864
2.845,-4.649,4.644,2.315,-2.441,0.409
0.656,-2.623,2.016,2.656,-2.185,-0.911
-0.55,2.306,1.264,3.371,-1.21,-2.809
0.974,11.417,3.813,4.566,-0.045,-4.696
3.713,23.823,10.425,5.739,2.028,-6.348
12.426,31.966,19.103,6.855,3.197,-7.044
19.789,31.349,25.57,6.494,3.629,-6.099
31.481,25.742,32.223,5.033,3.083,-3.382
35.635,20.752,42.256,1.874,1.161,0.11
35.705,17.925,51.267,-1.619,-1.386,3.561
32.479,26.145,58.372,-5.111,-2.505,6.357
31.199,41.473,66.064,-7.28,-3.269,7.662
24.303,58.353,64.404,-8.611,-2.498,7.865
23.689,67.894,47.385,-8.13,-1.799,7.009
21.64,65.842,26.496,-5.818,0.028,6.036
19.851,52.897,8.649,-2.859,0.754,4.373
18.516,37.297,-3.968,0.253,1.333,2.767
18.798,20.931,-5.989,2.787,0.238,1.455
15.573,7.32,0.729,4.333,0.045,0.835
14.784,0.139,7.285,4.143,-1.253,0.338
11.686,-3.854,10.15,3.331,-1.966,0.403
7.6,-5.029,8.459,2.485,-2.384,0.64
3.201,-4.782,4.559,2.32,-2.155,0.214
1.026,-2.498,1.845,2.629,-1.606,-1.071
-0.031,3.116,1.294,3.415,-0.979,-3.029
0.467,12.793,4.146,4.726,0.676,-4.924
3.105,23.462,12.307,5.953,2.792,-6.054
10.371,29.611,20.927,7.077,3.656,-6.125
14.385,30.81,27.228,6.651,2.984,-5.928
26.896,22.958,32.947,5.256,3.936,-3.474
33.369,15.821,40.196,2.547,1.012,-0.086
34.54,13.149,47.188,-0.946,-1.84,2.841
28.857,20.317,54.561,-4.439,-3.644,5.068
27.285,33.334,63.891,-6.577,-4.42,7.331
15.536,50.312,64.352,-8.09,-5.783,8.25
11.506,59.781,52.48,-8.321,-3.792,7.825
9.678,59.967,33.35,-6.586,-2.282,6.747
11.765,51.062,14.77,-4.086,-0.128,5.332
14.151,35.502,-1.116,-1.239,1.555,3.795
18.342,19.988,-5.969,1.178,1.437,2.224
17.228,8.566,-2.948,2.773,0.901,1.351
16.512,0.872,1.778,3.042,0.109,1.097
12.79,-2.804,4.5,2.647,-1.419,0.859
7.542,-2.385,4.66,2.165,-1.839,0.612
4.106,-0.097,3.27,2.269,-1.532,-0.139
2.45,2.344,2.38,2.801,-1.289,-1.379
0.394,8.722,3.379,3.875,-0.248,-3.205
1.433,17.423,9.283,5.263,2.115,-4.491
8.137,26.209,17.258,6.391,3.798,-4.614
10.278,31.183,24.22,7.362,3.95,-4.653
15.944,29.707,31.546,7.217,4.96,-3.219
24.188,21.842,38.975,5.306,4.005,-0.726
28.487,15.71,46.126,1.814,1.322,2.044
26.735,15.519,52.947,-1.679,-1.197,4.25
28.481,22.743,60.931,-5.172,-2.279,6.666
28.374,37.772,65.658,-7.671,-3.919,7.829
24.037,54.682,60.525,-8.838,-3.41,8.411
20.561,62.606,44.105,-7.661,-2.065,7.834
18.853,60.25,25.15,-5.524,-0.327,6.505
17.648,50.544,7.123,-2.871,1.0,4.605
16.916,35.623,-4.829,0.076,1.923,2.69
18.296,20.456,-5.846,2.714,1.421,1.261
19.17,9.178,0.526,3.872,0.538,0.878
16.993,1.396,6.526,3.797,-0.546,1.04
13.271,-2.945,9.269,3.05,-1.463,1.547
7.343,-3.855,7.164,2.095,-2.073,1.725
2.199,-2.883,3.1,1.718,-2.112,0.98
-0.926,0.538,-0.048,2.002,-1.621,-0.849
-1.575,8.729,-0.625,3.184,-0.506,-3.175
0.656,21.016,3.647,4.771,1.132,-5.274
5.651,35.255,17.719,6.271,3.242,-6.143
14.343,36.839,31.025,6.461,3.15,-5.409
24.778,28.212,40.216,5.296,3.89,-3.363
29.689,21.537,53.015,2.192,1.557,-0.05
28.026,16.929,64.027,-1.3,-0.85,3.308
25.534,14.941,66.582,-4.793,-3.846,5.633
21.964,28.416,68.857,-7.244,-4.289,6.983
15.311,48.449,65.915,-8.699,-5.088,7.75
14.656,59.313,50.102,-8.057,-3.116,7.419
17.31,59.832,30.057,-6.162,-1.172,6.565
19.72,51.651,11.147,-3.546,0.314,5.324
19.232,36.879,-2.759,-0.597,1.056,3.54
21.218,22.286,-4.541,2.114,0.569,2.061
19.351,10.531,0.943,3.738,-0.334,1.314
16.817,2.996,7.476,4.011,-1.705,0.997
12.263,-1.75,11.909,3.595,-2.576,1.065
8.429,-4.471,11.815,2.833,-2.811,1.342
2.578,-4.705,6.501,2.376,-2.962,0.951
0.36,-4.343,3.173,2.499,-2.577,-0.141
-1.122,-1.623,1.273,2.883,-2.001,-2.182
-0.724,6.249,1.681,3.799,-0.413,-4.143
1.246,18.09,5.936,5.104,1.236,-5.957
12.162,26.005,18.087,6.343,3.661,-6.058
18.237,27.179,27.582,6.008,3.468,-5.234
28.827,23.086,36.452,4.583,2.661,-2.577
31.526,19.487,48.373,1.503,0.353,0.635
29.763,16.276,59.291,-1.989,-2.392,3.754
20.051,20.486,63.919,-5.482,-5.608,5.56
16.502,33.068,65.229,-7.675,-5.795,6.905
9.357,47.2,59.781,-8.803,-4.907,7.219
9.785,54.142,43.544,-7.832,-3.253,6.793
13.134,54.15,23.077,-5.828,-1.448,6.011
16.589,46.22,4.832,-3.077,0.153,4.759
18.382,33.714,-4.26,-0.07,0.378,3.119
19.542,21.119,-3.544,2.669,-0.269,1.851
17.419,10.165,2.817,4.102,-1.159,1.179
13.789,2.297,9.684,4.247,-2.032,0.897
9.616,-3.113,13.084,3.706,-2.463,0.87
5.64,-6.127,11.089,2.961,-2.419,0.965
1.522,-6.986,6.0,2.493,-2.16,0.59
-0.166,-5.275,2.325,2.476,-1.73,-0.73
-1.841,1.984,0.776,3.054,-0.734,-2.785
0.439,12.743,2.81,4.302,0.551,-4.687
4.949,25.887,6.846,5.532,1.29,-6.454
17.637,36.938,17.311,6.719,3.046,-7.644
27.712,36.628,23.357,5.843,3.387,-5.914
38.328,30.38,29.84,4.382,2.383,-2.479
40.641,28.147,41.223,1.086,0.24,1.013
40.726,28.383,52.899,-2.407,-1.031,4.506
35.533,33.739,56.878,-5.865,-2.451,7.714
34.209,48.222,60.483,-7.41,-2.592,8.584
31.355,63.35,54.962,-8.677,-1.643,8.223
29.082,67.825,34.826,-7.726,-0.062,7.206
25.968,62.915,12.947,-5.515,1.476,5.521
21.694,50.945,-3.106,-2.596,2.019,3.272
20.532,36.681,-9.025,0.648,2.269,1.246
18.475,20.416,-6.371,3.267,1.554,0.06
17.934,8.227,2.44,4.416,0.828,-0.202
17.153,1.073,9.941,4.264,-0.175,0.253
14.303,-3.494,12.574,3.427,-1.025,1.125
7.014,-5.48,8.942,2.422,-1.851,1.631
1.684,-5.06,4.578,2.01,-2.109,1.15
-0.79,-2.257,1.809,2.073,-1.71,-0.371
-3.034,5.295,1.913,2.89,-0.707,-2.633
-0.853,16.948,6.07,4.301,0.829,-4.749
4.591,30.04,16.443,5.554,3.111,-6.207
14.974,34.068,27.127,6.514,3.915,-6.234
24.642,29.944,33.658,6.131,4.601,-4.62
34.641,22.695,43.507,4.275,2.428,-1.231
36.548,18.861,54.688,0.783,-0.115,2.262
34.685,19.855,59.916,-2.71,-2.747,5.309
30.819,32.257,64.048,-5.877,-3.913,7.247
24.896,48.982,61.733,-7.819,-4.3,8.307
19.304,60.861,48.816,-8.156,-2.637,7.808
18.858,61.461,29.172,-6.511,-0.57,6.879
18.271,52.334,10.05,-4.065,0.69,5.362
17.374,37.452,-4.438,-1.098,1.702,3.739
18.827,21.934,-6.053,1.615,0.918,2.056
18.281,9.623,-1.106,3.315,0.013,1.191
15.816,1.455,4.998,3.828,-1.088,0.84
13.225,-3.123,9.725,3.47,-2.087,0.976
8.303,-5.099,10.118,2.601,-2.707,1.145
3.257,-4.782,6.918,2.06,-2.624,0.973
0.138,-3.062,3.186,2.126,-1.801,-0.056
-2.102,2.406,1.748,2.807,-1.204,-2.128
-1.497,11.448,3.612,4.165,0.594,-4.239
2.574,23.596,12.818,5.559,2.869,-5.648
12.065,27.805,25.121,6.749,2.957,-5.585
20.753,24.705,34.1,6.31,3.366,-4.435
30.025,18.829,44.112,4.467,1.702,-1.462
31.728,16.744,56.643,1.023,-0.702,2.03
29.761,16.854,62.614,-2.47,-3.759,4.878
22.601,28.91,66.501,-5.832,-4.685,6.518
15.18,44.562,64.945,-7.841,-5.212,7.387
9.91,57.431,53.57,-8.431,-3.59,7.016
10.253,58.865,34.137,-6.876,-2.019,5.889
12.252,52.037,15.01,-4.526,-0.184,4.561
15.096,38.134,-1.387,-1.714,1.002,3.032
18.801,24.665,-6.279,1.009,0.69,1.815
19.037,13.279,-3.039,3.056,-0.022,1.247
17.617,5.677,2.957,3.846,-0.963,1.183
14.268,0.987,8.024,3.739,-2.085,1.423
9.729,-1.791,9.581,3.115,-2.652,1.699
4.91,-3.783,7.43,2.545,-2.669,1.616
1.467,-3.798,2.991,2.541,-2.046,0.76
2.131,-5.411,1.992,2.666,-1.648,-0.33
0.404,-2.132,0.164,2.497,-1.577,-2.544
-0.348,7.589,0.71,3.287,-0.161,-4.506
1.82,24.95,7.406,4.626,1.936,-6.222
15.372,31.867,24.946,5.669,3.639,-6.113
20.515,32.559,30.923,4.838,3.545,-5.256
32.183,29.693,41.557,3.673,2.325,-1.772
37.074,31.278,55.852,0.695,0.238,1.72
39.255,29.347,64.902,-2.798,-2.857,5.213
27.984,37.295,60.382,-6.29,-5.21,7.278
24.03,49.908,56.027,-7.93,-4.493,8.507
15.638,59.523,42.242,-7.797,-2.502,7.659
14.8,55.137,22.304,-5.644,-0.453,6.413
14.801,44.025,4.4,-2.867,1.243,4.6
17.594,28.229,-5.669,0.018,1.861,2.629
18.555,15.648,-5.233,2.405,1.08,1.301
18.775,5.259,0.593,3.375,0.447,1.024
15.882,-0.843,6.235,3.005,-0.984,1.096
11.513,-3.871,8.46,2.102,-1.681,1.591
6.83,-4.119,6.665,1.239,-2.001,2.103
1.514,-2.576,1.732,1.015,-2.065,1.596
-0.894,2.087,-1.242,1.604,-1.524,-0.102
-1.667,10.192,-1.938,3.218,-0.438,-2.422
0.719,24.415,3.158,4.837,1.429,-4.595
8.822,37.315,19.542,6.307,3.484,-5.413
15.374,38.129,32.721,6.339,2.425,-5.285
28.553,28.094,43.782,4.963,1.643,-3.192
33.485,22.487,58.7,1.565,-0.475,0.264
33.244,17.368,69.283,-1.928,-2.96,3.757
27.465,20.57,69.283,-5.42,-5.665,5.694
22.577,32.974,66.247,-7.615,-4.634,7.094
13.517,50.36,57.318,-8.838,-3.721,7.175
11.349,56.263,38.73,-7.672,-1.802,6.291
13.038,52.872,19.321,-5.581,-0.138,5.035
14.176,39.67,1.88,-2.755,1.219,3.732
18.658,24.49,-5.028,0.017,1.592,2.552
18.899,12.14,-3.674,2.189,0.864,1.767
18.436,3.59,1.482,2.839,-0.023,1.469
15.728,-1.971,5.986,2.519,-1.249,1.562
11.944,-4.503,7.043,1.526,-2.084,1.862
5.92,-2.394,3.722,0.803,-2.631,1.789
1.397,0.718,0.402,1.088,-2.268,0.921
-1.296,6.233,-1.302,2.234,-1.489,-1.039
-0.723,14.875,0.744,3.955,-0.147,-3.367
3.477,28.137,13.075,5.615,2.035,-5.066
15.58,31.198,30.312,7.058,3.235,-4.755
24.389,22.102,40.31,6.834,3.979,-3.793
31.582,14.779,53.049,4.648,2.033,-0.84
29.615,14.256,65.908,1.155,-0.272,2.476
27.156,13.236,69.96,-2.337,-3.298,5.223
16.807,21.823,64.223,-5.83,-4.403,6.339
12.204,38.933,56.517,-8.051,-4.618,7.18
10.023,49.654,40.123,-7.798,-2.901,6.513
12.984,46.895,20.748,-5.632,-0.83,5.599
15.132,36.746,4.429,-2.842,0.654,4.506
17.258,23.442,-3.222,-0.124,0.767,3.284
15.375,11.764,-1.971,2.238,-0.266,2.391
11.581,1.229,2.939,3.146,-0.604,1.915
9.903,-5.276,6.004,2.665,-1.253,1.586
6.361,-6.907,5.009,1.724,-1.973,1.307
2.004,-4.102,1.555,1.085,-1.548,0.241
-1.372,4.297,-1.264,1.487,-0.387,-1.708
-0.083,16.549,-0.574,3.044,1.017,-3.833
4.16,29.186,12.484,4.852,2.836,-4.949
13.27,31.857,27.184,6.222,2.74,-4.553
22.881,24.007,37.371,6.159,3.371,-2.809
27.537,14.544,49.214,4.042,1.437,0.236
24.624,8.807,62.48,0.55,-1.234,2.71
20.506,7.45,65.732,-2.943,-4.726,4.717
11.451,16.458,61.906,-6.162,-4.465,5.933
6.409,32.194,55.035,-7.973,-4.709,6.36
6.683,42.895,39.958,-7.521,-3.301,5.79
10.297,43.46,20.467,-5.375,-1.338,5.551
12.736,35.596,3.711,-2.477,0.814,4.496
17.289,22.462,-3.272,0.316,0.717,2.817
17.344,10.747,-2.142,2.442,-0.061,1.806
14.934,1.244,2.564,3.2,-0.516,1.429
13.334,-5.12,6.651,2.703,-1.094,1.472
10.393,-7.741,6.937,1.486,-1.74,1.758
5.422,-5.482,2.871,0.521,-1.604,1.848
1.404,-0.089,-1.204,0.566,-1.16,0.89
-0.081,6.178,-2.612,1.882,-0.53,-0.929
0.871,15.374,0.763,3.724,0.336,-3.169
7.505,23.914,13.391,5.536,2.323,-4.408
16.06,23.997,27.731,7.016,2.542,-4.275
26.205,14.99,38.926,6.513,1.904,-3.044
28.818,8.549,52.169,3.919,0.172,-0.277
24.436,8.433,64.198,0.426,-2.05,2.418
18.464,12.552,68.04,-3.066,-4.963,4.515
10.928,23.993,66.045,-6.374,-5.132,5.621
6.108,41.177,57.865,-8.247,-4.187,6.216
7.839,52.147,39.96,-7.68,-2.675,5.569
13.236,49.715,20.326,-5.205,-0.494,5.075
16.4,39.41,4.681,-2.06,0.648,3.774
20.046,25.523,-1.533,0.945,-0.058,2.247
18.261,11.569,0.088,3.251,-0.839,1.363
15.092,0.764,5.59,3.965,-1.526,0.868
11.943,-5.778,9.164,3.357,-2.455,0.604
8.059,-7.977,8.142,2.205,-2.464,0.739
3.252,-5.583,2.687,1.227,-1.616,0.508
-1.575,1.773,-1.572,1.391,-0.908,-1.062
-1.538,10.3,-1.948,2.785,0.892,-3.045
2.801,23.072,6.836,4.41,2.782,-4.861
11.789,29.919,19.83,5.91,4.414,-5.457
18.742,29.384,29.321,6.293,4.24,-5.086
30.662,21.519,38.134,5.2,2.963,-2.723
32.132,16.499,50.881,2.094,0.214,0.436
27.033,11.953,58.158,-1.398,-2.456,3.516
17.812,19.317,61.271,-4.891,-5.345,5.313
13.264,31.689,59.298,-7.3,-4.563,6.835
9.777,44.856,48.456,-8.185,-3.297,6.923
10.455,48.871,29.61,-6.343,-1.617,6.181
14.476,43.943,11.731,-3.536,-0.204,4.923
19.135,28.348,-1.612,-0.8,0.556,3.427
19.905,14.306,-5.075,1.37,-0.546,2.003
15.049,2.781,-0.893,2.747,-1.217,1.209
12.527,-3.596,4.771,2.57,-1.788,0.761
9.484,-5.931,6.443,1.801,-2.523,0.674
4.245,-3.805,3.485,1.294,-2.009,0.56
1.904,-0.884,-0.273,1.597,-1.346,-0.239
0.236,4.726,-1.9,2.321,-0.893,-2.224
2.828,14.08,1.706,3.656,0.677,-4.214
10.811,20.139,9.955,5.111,2.875,-5.002
18.92,20.054,20.886,6.184,4.341,-3.9
23.079,14.722,31.887,5.566,3.394,-1.996
23.442,7.286,44.97,3.315,2.036,0.484
19.772,2.002,56.566,0.153,-0.334,3.065
16.124,5.264,64.524,-3.339,-2.985,4.933
13.732,17.725,66.154,-6.641,-5.231,5.517
13.87,33.858,57.099,-8.199,-4.263,6.014
15.167,45.712,39.437,-6.879,-2.928,6.156
17.2,46.338,20.243,-4.304,-0.804,5.533
17.073,38.52,4.568,-1.243,0.431,4.07
16.845,24.498,-3.854,1.452,0.796,2.25
15.541,10.033,-2.022,3.492,0.377,0.658
15.677,-0.271,3.823,3.835,0.018,0.03
15.341,-6.016,7.343,3.123,-1.124,0.225
11.328,-7.372,6.739,1.983,-1.983,0.732
5.162,-5.229,2.97,1.31,-1.849,0.716
-0.099,-0.241,-0.769,1.163,-1.179,-0.558
-2.116,8.603,-1.208,2.01,0.09,-2.599
-0.237,20.427,4.604,3.639,1.999,-4.751
5.575,27.474,17.228,5.211,4.272,-5.602
13.455,27.837,27.145,5.846,4.004,-5.313
25.841,19.797,35.502,5.501,3.614,-3.292
30.176,10.662,48.44,3.37,0.916,-0.114
26.498,7.959,58.301,-0.122,-1.898,3.334
22.412,13.203,61.956,-3.615,-4.616,5.435
18.075,24.314,62.687,-6.27,-4.343,6.856
13.144,40.127,56.327,-8.075,-3.76,7.211
13.314,49.903,38.61,-7.614,-2.185,6.463
15.947,46.384,19.146,-5.34,-0.502,5.118
16.825,35.699,2.084,-2.523,0.774,3.475
19.104,21.615,-6.034,0.214,0.658,1.796
17.822,9.42,-4.805,2.475,-0.104,0.722
15.779,-0.041,0.599,3.275,-0.403,0.437
15.097,-4.976,4.803,2.829,-1.219,0.563
12.734,-6.447,5.972,1.836,-2.11,1.013
7.514,-4.046,3.632,1.069,-2.26,1.296
1.935,-0.909,0.499,0.961,-1.818,0.522
-0.285,3.953,-1.079,1.502,-1.083,-1.228
-0.096,11.362,0.146,2.888,-0.098,-3.493
2.005,20.824,7.358,4.557,2.234,-5.342
10.553,26.26,17.433,6.079,4.026,-5.521
16.913,27.376,27.031,6.854,4.147,-5.038
27.199,19.761,35.988,6.13,3.221,-2.96
31.252,12.267,47.522,3.551,1.157,0.157
30.622,11.865,56.204,0.059,-2.315,3.426
25.894,17.98,62.431,-3.434,-4.692,5.455
22.839,28.927,63.482,-6.403,-5.425,7.393
16.235,43.941,57.067,-8.203,-4.391,7.986
14.303,53.914,40.337,-7.911,-2.893,7.52
14.093,50.93,20.089,-5.745,-0.723,6.213
14.521,41.801,2.009,-2.896,0.832,4.425
16.74,28.359,-6.291,0.161,0.95,2.291
18.471,15.89,-4.087,2.685,0.242,1.063
16.791,5.326,2.239,3.692,-0.355,0.822
15.453,-1.612,7.378,3.251,-1.035,1.076
12.319,-4.533,8.924,2.136,-1.856,1.673
6.135,-3.387,5.569,1.192,-2.604,1.836
-0.251,0.102,0.007,1.042,-2.184,0.7
-2.723,7.042,-2.632,1.834,-1.217,-1.717
-0.726,16.924,-0.743,3.593,-0.177,-4.157
5.449,28.25,12.995,5.352,1.982,-5.455
14.975,29.668,28.02,6.293,2.835,-5.216
27.806,20.25,37.659,5.648,3.112,-4.159
33.867,12.679,47.352,3.867,1.202,-1.182
33.251,7.869,59.794,0.383,-1.039,1.971
25.488,2.639,62.589,-3.11,-3.819,3.799
15.352,11.606,62.006,-6.163,-4.498,4.702
3.448,29.193,59.543,-7.893,-4.574,5.454
3.312,40.036,49.645,-8.359,-2.477,4.935
6.868,42.366,30.832,-6.688,-0.937,4.175
11.263,39.478,12.461,-3.915,0.422,3.496
19.4,27.407,1.11,-0.832,1.185,2.743
23.197,15.941,-1.093,1.623,-0.218,2.117
19.76,5.353,1.624,3.179,-1.329,1.956
14.856,-1.86,6.667,3.171,-2.178,1.726
11.1,-4.871,8.76,2.209,-3.007,1.473
4.061,-3.262,6.359,1.226,-3.025,0.898
0.02,0.982,1.849,1.247,-1.719,-0.229
-2.221,8.386,-0.663,2.273,-0.528,-2.312
-0.891,17.931,1.012,4.103,1.254,-4.474
6.897,27.667,15.696,5.784,3.506,-5.135
15.484,27.577,28.194,6.146,2.433,-4.869
26.848,19.714,35.677,5.13,1.885,-3.224
31.52,12.992,46.063,2.771,-0.063,-0.138
32.501,13.569,58.936,-0.722,-1.749,3.354
27.836,14.223,59.918,-4.214,-3.618,5.203
22.553,26.128,58.204,-6.676,-3.253,6.042
16.035,43.093,52.129,-8.136,-2.517,6.437
13.811,53.055,37.162,-7.452,-1.329,5.718
13.434,48.4,16.99,-5.213,-0.063,4.557
13.135,39.186,0.622,-2.276,0.126,3.114
15.77,24.386,-5.482,0.662,0.597,2.192
14.119,10.242,-3.44,2.89,0.272,1.265
13.857,-0.292,1.723,3.311,-0.066,0.904
12.408,-5.552,4.935,2.88,-1.027,0.756
9.918,-6.17,5.05,1.963,-1.753,0.843
2.539,-1.433,0.419,1.39,-1.491,-0.075
-0.982,6.659,-2.299,2.021,-0.499,-1.922
-0.363,17.073,-0.148,3.706,0.879,-4.142
4.289,28.968,11.592,5.39,2.969,-5.524
11.112,31.264,23.086,6.37,3.517,-5.647
23.617,24.839,30.587,6.004,3.756,-4.107
32.001,17.985,39.123,4.342,1.149,-1.081
33.292,15.682,50.089,0.996,-1.124,2.411
31.122,14.565,55.308,-2.496,-4.317,5.103
26.599,24.3,57.129,-5.495,-4.987,6.984
19.24,38.915,55.526,-7.494,-4.734,8.237
15.521,49.598,44.656,-8.071,-2.716,8.083
15.0,49.734,25.798,-6.533,-1.135,7.118
14.104,42.641,6.967,-3.94,0.486,5.759
14.454,30.049,-4.786,-0.906,1.12,3.974
15.829,17.525,-5.966,1.741,0.347,2.332
14.115,5.533,-1.426,3.229,-0.275,1.572
11.489,-2.592,4.042,3.311,-0.842,1.154
9.86,-6.206,5.911,2.528,-1.212,0.955
7.274,-5.588,3.782,1.551,-1.426,0.561
2.6,-1.219,-0.939,1.41,-1.255,-0.562
0.526,7.421,-2.823,2.334,-0.417,-2.591
1.949,17.605,0.756,4.059,0.989,-4.701
6.86,27.238,10.874,5.742,2.931,-5.56
12.398,32.67,21.357,7.178,2.842,-5.8
21.276,29.91,29.395,6.824,3.483,-4.468
29.681,21.638,36.231,5.153,1.994,-1.87
31.979,15.663,43.565,2.021,-0.444,1.461
29.335,14.693,48.865,-1.472,-3.177,3.879
26.945,23.256,53.883,-4.964,-3.508,6.297
20.448,37.197,54.046,-7.117,-3.958,7.67
15.263,50.592,44.635,-8.253,-2.891,7.762
13.779,54.444,27.573,-6.984,-1.537,6.875
11.961,48.421,9.742,-4.513,-0.417,5.214
12.105,32.616,-3.886,-1.63,0.669,3.236
14.229,16.626,-8.46,0.647,0.339,1.649
13.485,3.229,-4.73,2.302,-0.066,0.904
11.605,-3.876,0.9,2.355,-0.269,0.589
11.129,-5.786,3.684,1.773,-0.404,0.759
7.553,-3.299,2.501,1.039,-0.947,0.536
2.793,1.442,-0.786,1.34,-0.669,-0.637
-0.71,10.824,-1.689,2.526,0.188,-2.766
1.592,22.035,3.221,4.337,2.008,-4.896
8.407,31.821,11.94,5.941,3.026,-6.218
16.407,35.062,20.957,6.842,3.716,-6.207
25.706,30.636,27.849,6.262,4.339,-4.384
32.993,22.12,36.844,4.24,2.414,-1.146
32.96,17.657,44.372,0.801,-0.116,2.347
27.435,18.106,50.295,-2.691,-1.728,5.161
24.512,27.498,55.586,-5.742,-2.347,7.215
20.849,43.138,55.119,-7.74,-2.627,7.888
20.468,56.18,40.72,-8.294,-1.31,7.554
17.893,56.976,20.98,-6.318,-0.14,6.371
17.359,49.077,4.905,-3.485,0.538,4.332
16.995,35.799,-4.894,-0.319,0.832,2.102
17.165,19.454,-6.037,2.196,0.34,0.811
13.022,5.458,0.885,3.654,-0.1,0.083
13.642,-3.496,8.398,3.3,-0.359,0.086
13.878,-6.289,9.637,2.06,-0.937,0.801
8.755,-6.334,5.168,0.756,-1.929,1.279
1.897,-1.634,-0.421,0.427,-1.472,0.378
-0.536,5.526,-2.691,1.14,-0.386,-1.591
-0.358,15.438,-0.459,2.88,0.407,-3.903
1.262,27.23,10.783,4.78,2.65,-5.639
11.914,30.136,22.504,6.336,3.98,-5.677
20.687,26.768,29.765,6.254,3.979,-4.609
30.073,19.891,37.785,4.957,1.555,-1.881
31.834,14.374,49.647,1.657,-0.576,1.28
30.702,10.859,55.192,-1.835,-4.069,4.1
21.319,18.786,56.151,-5.254,-5.426,6.024
17.6,29.534,55.279,-7.357,-5.571,7.43
11.593,40.214,46.528,-8.26,-3.614,7.453
11.305,44.169,28.231,-6.893,-1.969,6.846
11.597,39.265,9.426,-4.386,0.092,5.792
13.392,28.243,-2.028,-1.316,1.099,4.114
13.629,15.669,-2.937,1.497,0.699,2.557
13.311,3.781,0.93,2.781,0.386,1.657
12.27,-4.082,4.386,2.61,-0.295,1.137
10.931,-6.343,4.656,1.724,-1.266,0.637
8.373,-4.538,3.404,1.007,-1.949,-0.016
3.767,3.593,-1.061,1.149,-1.552,-1.254
2.209,13.509,-1.935,2.896,-1.02,-3.051
2.137,24.738,5.871,5.074,0.995,-4.828
7.335,28.637,18.97,6.946,3.192,-5.206
14.008,26.318,28.538,7.497,4.146,-4.401
25.032,16.071,37.554,6.292,3.24,-2.586
26.949,7.544,48.081,3.214,1.166,-0.101
25.049,2.892,56.565,-0.278,-2.233,2.344
20.942,10.283,62.0,-3.771,-5.466,4.213
16.658,21.986,61.907,-6.675,-5.844,5.74
9.603,36.271,53.549,-8.05,-4.474,6.394
11.805,44.431,37.606,-7.229,-2.673,6.114
14.512,42.526,18.552,-5.057,-0.733,5.611
15.385,30.028,2.503,-2.402,1.289,4.435
15.556,16.524,-3.858,-0.148,0.588,2.778
15.08,4.713,-2.464,1.5,-0.142,1.705
11.155,-3.014,0.953,1.977,-0.6,1.235
9.957,-6.369,3.127,1.678,-0.978,0.887
7.402,-5.169,2.681,1.164,-1.326,0.298
5.75,-0.658,0.26,1.364,-0.547,-0.602
4.354,7.03,-1.106,2.407,-0.053,-2.004
5.403,14.521,0.48,4.186,0.839,-3.725
8.198,22.163,7.918,5.806,2.608,-4.633
14.999,23.915,20.116,7.158,4.372,-3.517
18.445,16.82,31.691,6.665,3.442,-2.124
20.935,9.668,41.754,4.014,1.778,-0.022
18.698,8.103,54.003,0.521,-0.138,2.523
17.632,9.714,62.763,-2.971,-2.654,4.667
13.193,20.194,61.104,-6.464,-4.862,5.379
12.479,36.14,49.351,-8.054,-3.859,6.195
10.967,44.976,33.484,-6.7,-2.318,6.026
12.853,42.662,16.363,-4.148,-0.695,5.013
14.722,32.591,2.026,-1.389,0.386,3.42
15.771,18.454,-5.207,0.977,0.466,1.855
15.204,4.517,-2.772,2.701,-0.037,0.783
15.275,-3.871,3.215,2.734,-0.655,0.569
13.935,-7.034,5.909,1.86,-1.409,0.919
8.765,-6.109,4.382,0.907,-1.783,1.309
4.404,-4.483,1.029,0.493,-1.496,0.962
1.143,-0.366,-1.567,0.557,-0.961,-0.297
-0.705,6.114,-2.748,1.252,-0.063,-2.345
0.095,14.273,-0.589,2.831,1.456,-4.434
3.947,23.751,13.844,4.517,3.426,-5.03
11.836,23.01,26.549,5.447,2.56,-4.357
22.14,12.453,36.496,5.176,2.028,-2.792
25.158,4.957,50.056,3.293,-0.112,0.012
22.017,5.035,63.877,0.037,-2.849,2.819
21.159,8.377,65.436,-3.455,-6.0,4.651
15.332,19.714,60.26,-6.338,-5.21,5.883
10.097,38.35,51.145,-7.95,-4.819,6.44
9.028,48.232,33.656,-7.155,-3.022,6.032
13.301,44.431,14.575,-4.68,-0.996,5.454
12.807,32.442,-1.031,-1.604,0.494,4.031
15.25,18.413,-4.04,1.286,0.12,2.328
13.898,5.88,-1.384,3.078,-0.172,1.393
13.658,-3.128,3.131,3.282,-0.853,0.93
11.483,-7.172,5.814,2.459,-1.8,0.684
9.195,-7.646,5.542,1.26,-2.382,0.762
4.462,-3.798,1.344,0.42,-2.172,0.463
-0.309,2.448,-1.764,0.72,-1.642,-0.98
-1.554,10.889,-1.048,2.241,-0.116,-2.815
0.967,20.671,4.725,4.083,1.826,-4.652
8.99,27.273,18.763,5.698,4.069,-5.063
15.842,26.379,28.949,6.239,3.771,-4.557
27.205,15.885,39.013,5.296,2.792,-2.647
31.303,8.376,52.597,2.162,0.283,0.408
29.563,8.357,63.222,-1.33,-2.111,3.682
25.288,13.272,63.768,-4.823,-4.177,5.278
22.204,24.416,59.173,-7.413,-3.517,6.149
18.676,40.652,46.982,-8.292,-2.764,6.312
15.804,47.627,27.767,-6.415,-0.899,5.405
17.276,41.566,9.274,-3.888,0.5,3.911
16.715,30.01,-4.554,-0.95,0.835,2.429
17.446,16.325,-6.882,1.682,0.496,1.302
13.771,4.583,-2.271,3.271,0.181,0.622
13.744,-3.35,2.562,3.217,-0.437,0.369
11.343,-7.558,4.591,2.502,-1.285,0.488
7.517,-7.191,3.21,1.477,-1.971,0.6
2.477,-2.38,-0.253,1.062,-1.545,-0.046
-1.383,5.315,-2.478,1.617,-0.541,-1.846
-0.785,14.542,-0.683,3.285,0.554,-4.029
3.158,24.988,9.016,4.966,2.735,-5.638
13.694,27.66,23.199,6.365,4.345,-5.673
22.472,21.78,30.538,6.092,4.031,-4.58
30.972,14.917,38.356,4.562,2.046,-1.646
31.508,9.583,50.493,1.069,0.113,1.639
27.799,7.116,57.198,-2.423,-2.591,4.44
19.579,15.451,56.184,-5.736,-4.395,5.855
14.398,29.776,53.006,-7.68,-3.937,6.859
10.815,39.929,42.467,-7.912,-2.526,6.454
10.428,42.658,24.312,-5.843,-0.878,5.586
12.793,37.527,6.945,-2.995,0.579,4.251
14.775,24.88,-3.035,0.147,1.398,2.779
16.783,11.967,-3.678,2.447,0.936,1.579
15.666,1.153,0.264,3.397,0.253,0.845
14.947,-5.181,4.514,3.085,-0.741,0.544
13.381,-7.848,5.819,1.964,-1.918,0.668
9.233,-6.194,3.341,0.726,-2.7,0.931
3.352,-2.1,0.074,0.606,-2.442,0.359
-0.159,4.532,-1.077,1.465,-1.36,-1.014
-0.848,13.282,0.365,3.2,-0.194,-3.034
3.473,24.001,9.811,4.967,1.715,-4.705
14.016,28.819,23.808,6.555,4.094,-5.012
22.662,22.774,31.88,6.635,3.767,-4.59
32.559,14.294,40.377,5.028,1.448,-2.481
35.481,8.403,51.245,1.711,-0.74,0.84
31.007,4.792,57.61,-1.782,-3.012,3.884
22.368,9.598,56.891,-5.274,-5.331,5.505
17.83,22.292,55.498,-7.534,-4.467,6.788
14.708,34.774,46.838,-8.298,-2.346,6.662
14.252,39.685,30.105,-6.961,-0.661,5.641
16.208,36.517,11.638,-4.428,0.918,4.338
19.66,26.811,-0.654,-1.47,1.774,3.125
21.33,16.677,-3.989,1.067,0.511,2.134
17.576,7.118,-1.278,2.829,-0.544,1.569
15.048,-1.619,4.685,3.173,-1.323,1.219
12.261,-5.551,7.507,2.279,-2.332,1.042
6.462,-4.89,4.69,1.315,-3.062,0.758
2.342,-2.232,1.471,1.201,-2.664,0.097
-0.973,3.32,-1.447,1.68,-1.876,-1.618
-0.96,13.412,-1.325,3.316,-0.432,-3.682
2.678,26.121,6.958,5.169,1.644,-5.673
14.451,30.219,22.855,6.619,3.902,-5.929
20.662,26.639,30.059,6.461,3.89,-5.596
30.708,20.101,37.84,5.047,2.037,-3.261
33.871,14.004,44.192,2.291,-0.179,0.15
32.539,7.978,48.613,-0.826,-2.578,3.643
24.701,11.129,47.813,-4.269,-4.559,5.629
20.417,23.064,48.926,-6.534,-3.956,6.859
16.476,35.21,41.813,-7.553,-1.609,6.97
17.477,40.921,29.252,-6.762,0.226,6.239
18.674,38.646,13.614,-4.652,1.655,5.162
20.071,29.925,1.329,-1.798,1.755,3.659
21.459,18.212,-3.757,0.533,0.906,2.629
18.673,6.252,-1.755,2.321,-0.184,1.989
14.245,-2.422,3.219,2.513,-1.189,1.492
10.444,-6.38,5.989,1.755,-2.418,1.123
4.463,-4.823,4.475,0.863,-2.707,0.677
-1.627,1.133,0.816,0.912,-1.916,-0.635
-3.724,10.917,-0.323,2.054,-0.31,-2.618
-0.499,23.32,5.552,3.827,1.468,-4.796
9.295,29.233,17.878,5.417,2.858,-6.044
18.406,28.258,24.699,5.974,3.634,-5.868
31.885,19.319,29.393,5.421,3.188,-3.875
37.073,9.298,36.004,3.437,0.992,-0.963
36.642,0.363,43.324,-0.056,-1.416,2.211
30.582,1.471,46.217,-3.375,-3.273,4.568
25.473,12.032,51.646,-5.893,-4.187,6.195
18.055,26.606,51.809,-7.72,-3.719,6.865
16.787,37.552,41.852,-8.056,-2.363,6.73
15.756,41.4,23.146,-6.087,-0.976,5.996
14.454,37.316,6.097,-3.174,0.355,4.767
15.812,26.638,-2.688,0.073,0.67,3.055
16.324,13.963,-1.819,2.659,0.245,1.636
14.452,3.086,2.36,3.768,-0.429,0.944
13.059,-4.163,6.523,3.49,-1.023,0.638
10.937,-7.514,7.675,2.442,-1.822,0.674
7.211,-7.255,4.34,1.279,-1.939,0.709
2.712,-2.241,-1.283,1.037,-2.185,-0.15
-0.9,5.415,-3.569,1.9,-1.301,-2.191
-0.529,14.711,-1.047,3.701,0.009,-4.329
3.932,28.104,9.399,5.329,2.284,-6.178
15.386,30.526,22.221,6.132,3.188,-6.149
23.913,24.971,27.371,5.699,3.596,-4.989
32.614,17.994,35.254,4.275,1.736,-1.99
35.716,14.403,44.348,1.169,0.067,1.503
32.708,10.328,48.405,-2.324,-2.027,4.881
24.007,19.504,48.305,-5.21,-2.952,6.208
17.978,34.583,49.045,-7.122,-2.322,7.029
16.626,46.464,38.711,-7.976,-0.746,6.489
15.912,48.863,21.597,-6.431,0.669,5.591
17.758,43.555,5.045,-3.629,1.063,4.109
18.653,31.297,-4.433,-0.344,1.302,2.787
20.409,16.752,-4.789,2.049,0.124,1.729
15.987,4.004,0.569,3.373,-0.595,1.267
12.622,-3.981,6.815,2.971,-1.601,0.859
9.206,-7.867,8.37,1.858,-2.131,0.979
4.389,-7.943,4.35,0.582,-2.256,1.171
0.216,-3.637,-1.271,0.385,-1.34,0.572
-1.506,2.432,-4.373,1.002,-0.282,-1.195
-0.776,10.018,-3.678,2.562,0.608,-3.38
1.555,20.414,2.191,4.366,2.402,-5.511
11.432,29.16,14.835,5.849,4.547,-6.257
18.217,29.759,23.151,5.952,3.511,-5.755
28.915,23.055,29.058,5.2,2.441,-3.558
31.719,16.8,38.41,3.058,0.645,-0.481
31.028,12.459,49.045,-0.434,-2.301,2.675
25.296,15.548,51.873,-3.927,-5.309,5.201
20.016,26.27,52.103,-6.226,-4.864,7.036
11.695,39.938,46.589,-7.612,-4.183,7.545
10.395,47.16,31.363,-7.165,-3.043,6.974
9.567,45.135,12.023,-4.753,-1.278,5.702
9.372,34.077,-1.531,-1.746,0.352,3.678
13.27,19.552,-5.351,0.92,0.191,1.963
13.621,6.686,-2.941,2.675,-0.024,1.096
12.105,-2.272,2.725,2.951,-0.326,0.857
11.648,-6.514,6.289,2.152,-0.584,1.092
8.566,-6.094,4.173,0.975,-1.581,1.185
1.311,-1.423,-1.138,0.729,-1.252,0.098
-1.531,6.318,-3.628,1.521,-0.385,-1.926
-0.757,16.1,-1.874,3.343,0.77,-4.193
3.819,29.771,9.048,5.222,2.647,-5.777
12.66,32.831,21.333,6.438,3.59,-5.781
20.65,29.88,27.977,6.243,3.806,-4.56
29.222,20.9,35.83,4.806,1.714,-2.21
31.01,13.869,45.43,1.524,-0.333,0.896
26.294,8.543,49.788,-1.969,-3.125,3.543
18.328,17.619,51.631,-5.016,-4.659,5.013
12.131,28.649,50.17,-7.24,-4.344,6.198
7.972,41.0,40.792,-8.109,-2.85,6.184
7.213,45.439,24.339,-6.674,-1.537,5.347
9.202,40.101,7.06,-4.14,-0.196,4.031
13.025,26.244,-4.109,-1.285,1.156,2.63
16.854,13.62,-5.109,0.955,0.196,1.285
15.732,2.939,-1.949,2.24,-0.216,0.96
13.86,-3.114,2.647,2.282,-0.664,0.977
11.405,-5.462,4.742,1.587,-1.206,1.143
5.976,-3.649,2.69,0.846,-1.671,0.877
1.111,0.696,-1.38,1.017,-1.049,-0.367
-2.196,9.753,-2.762,2.15,-0.041,-2.567
-1.14,20.427,0.196,3.956,1.639,-4.852
5.405,31.11,12.073,5.609,3.633,-6.09
14.159,31.855,21.092,6.035,3.607,-5.83
24.179,26.153,26.833,5.685,4.098,-3.804
30.54,16.656,35.229,3.809,2.023,-0.721
31.374,10.378,45.466,0.317,-0.262,2.682
27.561,8.794,48.368,-3.176,-2.991,5.329
21.433,19.736,48.97,-5.716,-3.253,7.045
15.299,32.798,46.357,-7.585,-3.153,7.433
13.856,42.414,33.765,-7.725,-1.419,6.74
14.197,42.743,15.012,-5.793,0.086,5.366
14.923,34.619,-1.115,-3.243,1.446,3.576
18.331,21.109,-7.114,-0.627,1.791,1.975
18.68,9.471,-5.848,1.404,0.705,1.076
15.834,0.856,-0.175,2.22,-0.138,0.933
13.313,-4.156,4.87,2.003,-0.868,1.172
10.468,-5.182,5.989,1.36,-1.555,1.552
4.792,-4.04,2.441,0.82,-1.705,1.249
1.147,-0.109,-1.621,0.857,-1.228,-0.038
-1.073,7.062,-3.496,1.838,-0.308,-2.189
-0.397,16.451,-1.212,3.585,0.913,-4.455
3.918,29.423,7.545,5.169,2.843,-6.206
15.352,33.812,18.95,6.077,3.955,-6.275
22.621,31.421,24.015,5.742,3.975,-4.95
31.431,22.548,31.534,4.333,2.116,-2.183
33.2,16.972,41.373,1.251,0.015,1.226
29.177,11.827,47.461,-2.241,-2.49,4.421
20.885,19.753,48.671,-5.224,-3.822,6.28
16.545,31.429,48.943,-7.149,-3.489,7.306
12.876,43.438,39.151,-7.886,-1.853,7.176
13.136,45.757,22.544,-6.534,-0.674,6.162
14.077,39.716,6.161,-3.879,0.339,4.534
15.73,25.076,-3.02,-1.059,0.98,2.871
16.754,11.949,-4.447,1.05,0.113,1.626
14.286,1.396,-0.828,2.2,-0.725,1.011
11.347,-4.6,3.926,2.22,-1.319,0.701
9.593,-6.198,5.88,1.456,-1.677,0.713
5.305,-3.261,2.97,0.747,-1.891,0.521
1.651,0.398,-0.662,0.997,-1.487,-0.517
-1.148,6.951,-1.865,1.918,-0.355,-2.451
0.16,15.32,0.907,3.642,1.436,-4.359
4.963,25.945,10.333,5.244,3.409,-5.449
11.89,29.717,19.694,6.313,4.919,-5.261
17.441,27.552,25.936,6.253,4.643,-4.02
27.954,17.972,34.644,4.972,3.612,-1.306
28.881,10.741,44.428,1.637,1.625,1.681
24.207,8.578,51.28,-1.856,-0.824,4.012
20.605,18.086,57.553,-5.037,-3.296,4.877
16.133,32.436,58.2,-7.335,-3.401,5.78
8.983,47.752,48.384,-8.212,-3.02,5.803
7.979,53.594,31.318,-6.737,-1.857,5.171
10.37,47.69,12.317,-4.185,-0.702,4.098
11.031,31.934,-2.19,-1.273,0.764,3.297
14.091,16.19,-5.334,1.043,0.572,2.156
13.815,3.496,-2.489,2.328,0.317,1.396
13.522,-3.532,1.967,2.387,-0.559,1.099
11.066,-6.055,4.463,1.661,-1.664,1.027
6.079,-3.552,3.079,0.844,-2.205,0.814
1.967,-0.017,-0.474,0.856,-1.398,-0.149
-0.668,6.579,-1.97,1.78,-0.435,-2.01
-0.588,13.796,-0.418,3.463,0.938,-4.144
3.374,23.684,8.311,5.13,3.34,-5.411
13.763,26.058,19.944,6.339,4.939,-4.656
20.51,22.777,26.924,6.2,4.696,-2.902
24.426,15.636,35.862,4.62,3.346,-0.246
22.223,9.9,47.322,1.262,0.677,1.997
18.681,6.427,52.037,-2.23,-2.259,4.148
11.155,13.452,51.915,-5.535,-4.371,5.151
7.913,23.876,50.251,-7.723,-4.055,5.624
9.239,34.599,39.695,-8.239,-3.238,5.416
12.266,38.803,22.731,-6.43,-1.288,5.56
14.328,33.711,7.656,-3.845,0.386,4.791
16.388,21.283,-2.453,-1.26,1.049,3.286
15.988,10.754,-5.501,0.847,0.378,1.855
13.098,0.468,-2.713,2.142,-0.043,1.037
12.306,-5.803,1.285,2.018,-0.464,0.544
10.495,-7.644,2.736,1.218,-1.167,0.407
6.565,-4.732,1.103,0.537,-1.138,0.167
3.09,-0.207,-1.345,0.707,-0.627,-0.702
0.598,7.171,-2.288,1.707,0.412,-2.305
0.107,16.104,-0.257,3.456,1.604,-4.24
3.487,27.313,7.962,5.165,3.491,-5.727
12.048,29.69,17.678,6.249,4.52,-5.22
17.089,27.275,22.898,6.317,4.911,-3.576
23.868,18.278,27.855,5.062,4.222,-0.959
25.955,9.707,34.729,2.259,2.592,1.944
23.419,1.913,39.279,-1.233,-0.252,4.274
19.709,7.577,43.73,-4.222,-2.441,5.241
18.484,17.778,47.459,-6.567,-3.324,6.19
16.272,31.086,42.833,-7.925,-3.065,6.35
15.297,39.127,29.398,-7.166,-2.337,5.922
14.667,39.761,13.61,-4.86,-0.965,5.102
12.705,31.768,-0.386,-2.057,0.783,3.768
14.118,18.963,-6.695,0.617,0.999,1.837
13.165,7.834,-5.003,2.569,0.556,0.511
13.838,-1.325,0.752,3.066,0.496,0.049
14.286,-6.521,4.726,2.536,0.089,0.276
12.603,-8.245,4.806,1.523,-0.633,0.849
8.778,-6.319,1.601,0.759,-0.869,1.204
5.078,-3.934,-2.001,0.606,-1.157,0.527
0.868,1.349,-4.036,1.02,-1.043,-1.305
-0.568,9.583,-3.106,2.135,0.114,-3.488
0.619,20.291,0.868,3.837,1.914,-5.624
7.171,31.137,11.82,5.42,3.69,-7.002
16.188,31.189,21.273,5.454,3.821,-6.358
28.059,24.963,27.274,4.63,3.352,-3.849
32.681,18.689,35.133,2.58,1.402,-0.545
31.865,15.095,45.146,-0.852,-1.261,2.89
28.062,14.248,49.253,-4.345,-3.467,5.828
21.654,26.006,49.853,-6.459,-3.201,7.348
16.127,40.007,45.024,-7.937,-2.643,7.505
13.935,47.796,30.458,-7.385,-1.48,6.847
13.646,45.411,12.183,-5.126,-0.338,5.282
13.684,36.45,-2.27,-2.211,0.611,3.406
17.206,21.715,-7.067,0.558,0.339,1.643
15.397,7.739,-4.522,2.725,-0.226,0.8
14.31,-2.641,2.629,3.133,-0.866,0.434
13.64,-7.769,7.594,2.374,-1.237,0.847
10.266,-9.213,7.213,1.092,-1.888,1.431
4.004,-7.35,1.717,0.115,-1.835,1.597
0.385,-3.662,-2.08,-0.083,-1.397,0.634
-2.268,1.752,-4.266,0.246,-0.453,-1.285
-2.78,10.581,-3.42,1.626,0.919,-3.443
1.449,21.551,1.708,3.486,2.384,-5.408
9.491,29.84,12.607,4.937,3.032,-6.965
21.224,30.562,18.26,5.595,3.119,-6.689
35.733,21.976,23.134,5.688,3.089,-4.286
41.902,13.15,33.17,3.902,1.004,-1.034
39.843,9.306,44.689,0.41,-1.328,2.162
34.776,14.136,49.991,-2.834,-2.88,5.489
25.792,24.204,52.941,-5.461,-2.89,7.511
16.416,39.676,49.15,-7.425,-2.94,7.746
14.3,48.176,34.504,-7.334,-1.539,7.045
15.574,45.422,14.959,-5.102,-0.057,6.0
16.057,32.28,-0.905,-2.224,1.186,4.337
17.207,18.048,-6.204,0.173,0.33,2.635
15.98,5.736,-4.025,1.91,-0.345,1.661
13.134,-2.359,0.352,2.357,-1.204,1.151
10.157,-6.198,3.502,1.932,-1.831,0.911
7.277,-5.791,3.778,1.103,-2.527,0.783
2.98,-2.883,0.776,0.848,-2.014,0.168
0.049,0.83,-1.994,1.102,-1.29,-1.249
-0.824,5.997,-2.065,2.002,-0.117,-3.199
0.439,13.449,1.498,3.576,1.467,-4.961
3.075,21.525,10.319,5.02,3.802,-5.478
11.196,25.108,19.293,5.864,5.206,-4.191
14.054,25.867,25.025,6.072,4.51,-2.583
19.963,15.799,31.536,5.595,4.587,0.007
19.953,5.71,39.877,2.94,2.401,2.338
17.492,-0.486,45.878,-0.552,-0.701,3.659
10.341,3.447,51.319,-3.538,-2.967,3.939
8.086,12.002,57.826,-5.996,-3.572,4.437
4.122,27.387,58.391,-8.112,-4.194,4.375
7.446,40.025,49.409,-8.838,-2.62,4.405
12.512,45.888,32.311,-7.796,-0.973,4.514
16.924,42.705,14.463,-5.694,0.542,4.303
20.855,33.455,1.413,-3.102,1.255,3.555
22.814,23.283,-3.46,-0.438,0.52,2.707
20.695,12.537,-2.262,1.782,-0.639,2.342
16.315,4.178,3.488,2.736,-1.729,2.016
11.731,-0.941,8.708,2.603,-2.88,1.563
7.342,-3.045,9.916,2.139,-3.296,1.244
2.743,-1.946,7.0,1.894,-3.077,0.49
-0.242,0.821,3.967,2.39,-2.643,-1.109
-0.556,6.628,3.098,3.548,-1.121,-3.034
2.732,13.823,7.024,5.071,1.038,-4.558
10.472,18.28,15.79,6.437,2.576,-4.939
15.554,18.446,24.658,6.702,3.187,-4.661
23.245,12.973,31.931,5.549,2.652,-3.213
26.46,6.583,39.257,3.149,0.671,-0.876
23.986,3.829,47.63,-0.344,-2.072,1.594
16.141,7.195,53.784,-3.836,-3.704,3.256
11.81,18.527,58.786,-6.522,-4.699,4.371
5.63,35.338,59.543,-8.083,-4.408,4.863
8.035,48.028,50.43,-8.71,-2.424,5.132
11.28,52.556,31.96,-7.083,-0.694,4.821
16.619,49.584,13.02,-4.588,0.215,4.012
20.344,38.746,0.453,-1.677,0.541,2.921
24.304,24.178,-2.839,1.098,0.396,2.169
20.245,12.141,0.558,3.231,-0.963,1.493
16.33,3.37,7.705,3.851,-2.259,0.969
11.571,-1.731,12.656,3.659,-2.947,0.736
8.154,-4.177,12.321,3.121,-3.243,0.927
3.2,-3.557,7.64,2.774,-3.044,0.51
1.783,-3.195,4.801,3.027,-2.515,-0.554
1.822,-0.841,3.013,3.364,-1.535,-2.027
1.737,5.223,3.218,4.151,-0.453,-3.806
2.647,14.215,6.131,5.269,1.443,-5.44
9.868,23.07,17.523,6.335,3.611,-5.789
14.302,23.806,26.567,5.595,2.601,-5.425
24.406,19.143,32.901,4.066,2.013,-3.848
28.246,15.698,41.925,1.485,-0.368,-1.007
26.272,13.06,52.239,-1.773,-2.853,2.119
17.05,13.99,55.516,-5.265,-6.345,3.71
10.708,24.894,57.358,-7.04,-6.472,5.131
-0.189,37.991,56.833,-8.096,-5.755,5.919
0.411,45.965,48.585,-8.39,-3.299,5.602
6.216,49.37,30.946,-7.661,-1.451,4.888
14.081,45.861,9.778,-5.769,0.335,4.324
19.011,37.072,-3.724,-2.905,1.299,3.187
25.237,27.25,-4.747,0.187,0.427,2.252
22.9,16.68,-1.208,2.363,-0.885,2.025
17.525,8.242,5.507,3.339,-2.241,1.841
11.217,2.488,12.278,3.561,-2.659,1.838
7.907,-1.237,14.435,3.119,-3.018,1.842
2.209,-2.793,9.928,2.598,-3.26,1.167
-0.521,-2.245,5.083,2.752,-2.872,-0.365
-0.834,0.366,3.021,3.374,-1.613,-2.248
-0.596,7.448,4.562,4.488,-0.182,-4.269
1.923,17.898,9.588,5.558,1.43,-6.083
10.734,26.943,18.954,6.479,3.186,-6.765
18.724,27.13,25.289,6.1,3.779,-5.728
30.771,22.574,30.991,4.805,2.238,-3.438
35.913,18.066,39.241,2.118,0.265,-0.165
33.603,15.363,48.85,-1.375,-2.008,3.11
25.019,19.099,54.246,-4.867,-4.193,5.573
15.727,31.13,58.379,-7.031,-5.091,6.546
5.007,44.044,57.78,-8.298,-3.394,6.585
6.76,51.536,46.646,-8.452,-1.937,5.734
13.142,51.73,27.497,-6.801,0.212,5.119
18.925,43.324,8.524,-4.357,1.294,4.208
25.31,32.499,-1.147,-1.512,1.083,3.364
28.28,21.274,-2.28,1.045,-0.31,2.871
22.05,11.27,2.217,2.828,-1.731,2.621
14.915,4.009,8.869,3.235,-3.328,1.951
8.853,-0.395,13.398,2.992,-3.668,1.479
4.572,-2.83,12.25,2.459,-3.568,0.966
-0.167,-3.129,7.28,2.325,-3.035,-0.089
-0.519,-2.254,4.045,2.79,-1.939,-1.475
-0.265,0.957,2.489,3.452,-0.892,-3.269
0.391,9.154,3.557,4.502,0.462,-5.044
2.16,22.183,9.64,5.683,2.66,-6.451
10.148,28.67,19.081,6.447,4.118,-6.739
14.207,28.76,24.932,5.486,3.138,-5.95
26.935,22.476,30.336,3.943,2.765,-3.661
31.085,16.775,36.912,1.416,0.491,-0.522
31.803,10.536,42.835,-1.73,-2.283,2.68
25.18,15.261,47.698,-4.918,-4.143,5.32
19.043,25.886,54.021,-6.59,-4.153,6.247
4.0,40.768,55.664,-7.768,-4.158,6.246
4.47,49.701,49.45,-8.492,-2.077,5.408
7.631,52.702,32.961,-7.831,-0.579,4.5
12.128,47.216,13.886,-5.607,0.469,3.496
17.576,37.963,-0.342,-2.812,1.044,2.895
24.579,26.153,-5.092,0.008,0.552,2.225
22.945,15.063,-3.681,2.333,-0.788,2.095
18.051,6.55,3.246,3.453,-1.891,1.883
12.901,0.655,9.955,3.345,-2.907,1.452
9.166,-2.858,12.266,2.665,-3.312,1.292
4.327,-3.561,9.014,2.077,-3.477,0.952
0.191,-3.05,5.572,2.3,-3.114,-0.187
-1.052,-1.625,3.321,2.774,-2.081,-1.944
-1.026,4.098,2.559,3.521,-0.904,-3.986
0.467,13.655,4.502,4.767,0.635,-5.788
4.986,26.668,13.893,6.027,3.116,-6.88
14.241,29.563,22.103,6.079,3.226,-6.66
22.699,27.241,25.964,5.394,3.483,-5.018
31.123,22.124,32.176,3.66,1.184,-2.177
34.6,18.283,40.111,0.821,-0.559,1.316
31.264,14.216,45.029,-2.672,-3.412,4.379
21.727,23.294,50.28,-5.271,-4.562,6.204
10.619,34.922,54.404,-7.188,-5.466,7.029
5.13,44.468,50.453,-8.316,-3.156,6.75
5.448,48.542,36.489,-8.174,-2.167,5.626
9.06,46.764,17.019,-6.322,-0.839,4.535
13.148,38.197,0.07,-3.779,0.32,3.354
19.975,28.818,-7.37,-0.985,0.669,2.239
21.621,19.561,-7.297,1.52,-0.483,1.793
17.811,11.541,-1.59,3.125,-1.258,1.708
14.135,5.234,5.886,3.454,-2.067,1.621
10.925,1.082,10.228,3.076,-2.484,1.759
7.122,-1.484,9.432,2.448,-2.836,1.772
2.215,-2.812,5.538,2.221,-2.735,1.082
0.766,-3.13,2.932,2.436,-2.316,-0.19
-0.266,-1.319,1.2,2.88,-1.744,-2.073
0.243,5.221,1.716,3.725,-0.274,-4.039
2.591,14.0,5.353,5.052,1.294,-5.736
8.033,24.309,12.178,6.267,2.67,-6.615
13.87,29.446,19.353,6.592,2.406,-7.139
21.338,27.82,23.22,5.946,2.945,-5.708
32.354,21.812,26.296,4.248,1.251,-2.976
35.176,19.083,31.315,1.533,-0.716,0.4
32.49,17.027,37.545,-1.614,-2.647,3.345
27.187,22.793,42.657,-4.423,-2.752,6.35
18.413,33.92,48.034,-6.403,-3.173,7.544
7.207,44.787,50.174,-7.716,-1.692,6.858
9.495,50.663,43.39,-8.493,-0.166,5.287
12.635,52.055,26.969,-7.96,1.243,4.071
18.037,45.797,9.442,-6.117,2.139,2.908
23.141,37.095,-2.71,-3.717,1.566,1.78
27.145,27.529,-7.519,-0.929,0.629,1.613
23.139,16.728,-5.704,1.47,-0.801,1.896
18.86,8.47,1.324,2.743,-1.865,1.924
13.204,3.306,8.775,2.965,-2.834,1.759
9.255,-0.289,12.274,2.652,-2.895,1.743
5.074,-2.508,10.388,2.148,-3.029,1.377
1.476,-3.263,6.515,2.275,-2.576,0.421
0.538,-3.453,4.009,2.743,-2.057,-1.023
-0.106,0.219,2.528,3.359,-1.164,-2.921
1.027,7.416,4.094,4.652,0.144,-4.598
3.398,17.868,9.061,5.86,1.877,-6.011
10.379,26.093,18.675,6.826,3.246,-6.384
17.211,25.354,25.682,6.294,3.767,-5.131
25.933,21.026,32.353,4.863,2.483,-2.725
28.229,17.053,40.875,1.889,0.488,0.135
26.073,14.524,49.13,-1.604,-1.904,3.159
19.51,17.368,53.211,-5.096,-4.036,5.297
13.613,30.919,57.186,-7.183,-5.275,6.018
7.224,44.264,55.811,-8.432,-4.125,6.428
8.828,52.943,44.136,-8.567,-2.557,6.318
12.442,53.406,26.336,-6.996,-1.061,5.872
15.591,46.367,9.33,-4.566,0.2,5.061
17.87,33.111,-1.781,-1.781,0.775,3.865
19.566,19.312,-4.512,0.532,0.1,2.523
16.84,7.056,-1.755,2.225,-0.843,1.685
14.278,-0.259,3.069,2.552,-1.799,1.1
11.207,-3.264,6.346,2.22,-2.866,0.819
7.208,-2.46,5.566,1.768,-3.369,0.551
3.284,0.287,2.394,2.01,-3.148,-0.477
1.417,4.957,1.126,2.919,-2.534,-2.398
1.365,11.966,4.061,4.427,-1.205,-4.481
4.524,19.358,11.712,5.822,1.338,-5.681
8.585,24.014,18.766,6.981,3.546,-5.741
11.733,25.986,24.409,7.504,4.114,-5.075
15.787,23.495,28.835,7.144,4.322,-3.698
20.198,14.981,30.268,5.481,3.7,-1.746
22.328,6.367,28.951,3.027,1.055,-0.08
23.131,3.897,30.608,-0.084,-1.116,1.483
21.43,6.046,35.929,-3.07,-2.366,2.978
17.635,13.045,43.8,-5.584,-3.743,3.935
11.929,25.58,51.104,-7.327,-5.302,4.597
6.039,37.604,53.31,-8.365,-5.049,5.151
4.423,44.841,49.07,-8.747,-3.949,5.21
7.527,48.679,36.966,-8.384,-2.722,5.022
11.315,47.997,19.578,-6.817,-1.176,5.056
15.14,41.148,4.112,-4.396,0.23,4.495
19.007,31.764,-4.071,-1.558,0.742,3.381
20.395,21.481,-4.581,1.136,-0.274,2.341
18.383,11.752,-0.003,2.946,-1.119,1.925
14.546,4.067,6.574,3.464,-2.219,1.578
11.059,-0.776,10.684,3.13,-2.802,1.499
6.807,-3.037,9.639,2.553,-3.39,1.319
2.454,-2.298,6.056,2.458,-3.006,0.637
0.091,-0.854,3.069,2.87,-2.644,-1.031
-0.03,4.706,2.103,3.71,-1.593,-3.066
1.068,12.419,4.538,5.047,-0.188,-5.119
6.114,21.693,13.609,6.278,2.123,-6.007
13.391,25.403,22.733,6.974,3.484,-5.618
17.774,24.145,28.541,6.579,3.763,-4.423
26.128,16.427,34.293,5.031,2.409,-2.38
29.317,9.985,40.542,2.205,0.3,0.327
25.3,6.186,44.565,-1.147,-2.75,2.286
18.784,8.819,48.649,-4.442,-5.181,3.474
14.793,18.181,54.563,-6.724,-6.137,4.777
8.606,31.65,56.384,-8.1,-5.563,5.568
8.444,43.157,49.717,-8.697,-4.184,5.903
11.554,47.832,34.32,-7.859,-2.638,6.063
13.586,46.888,16.944,-5.723,-1.054,5.721
16.114,39.969,3.664,-2.9,-0.221,4.459
17.613,28.277,-2.302,-0.032,-0.194,3.013
16.064,14.85,-1.962,2.225,-0.821,1.907
13.908,4.443,2.305,3.288,-1.366,1.089
11.702,-2.349,6.802,3.205,-2.218,0.64
9.398,-5.04,7.838,2.549,-2.697,0.638
5.272,-4.433,4.678,2.056,-2.993,0.506
2.896,-1.946,2.054,2.43,-2.61,-0.428
1.425,1.456,1.498,3.309,-2.257,-2.044
1.814,8.408,3.51,4.633,-0.903,-3.825
3.23,16.716,10.192,5.958,1.418,-5.057
8.987,21.909,20.138,7.075,3.538,-4.801
12.689,21.814,27.913,6.966,3.321,-4.078
20.11,14.96,33.367,5.631,3.408,-2.229
23.786,7.851,38.256,3.243,2.155,0.365
22.674,1.979,43.19,-0.193,-0.408,2.421
16.435,1.822,47.434,-3.686,-2.961,2.792
11.633,9.274,53.068,-6.207,-3.919,3.315
5.344,25.082,58.992,-7.793,-4.93,3.733
3.063,36.246,59.155,-8.782,-4.358,3.881
6.463,44.662,50.018,-8.838,-3.393,4.001
11.574,47.965,33.853,-7.779,-1.859,4.633
16.727,44.762,16.646,-5.76,-0.176,4.784
