ax,ay,az,gx,gy,gz
-6.393,-3.594,-0.455,-0.106,-0.419,-1.069
-5.805,-3.984,-0.419,-0.157,-0.204,-1.459
-5.373,-4.725,-0.461,-0.231,-0.039,-1.91
-5.739,-6.242,-0.74,-0.404,0.068,-2.292
-5.861,-7.583,-1.125,-0.593,0.663,-2.441
-4.499,-8.686,-1.234,-0.62,0.62,-2.41
-5.102,-9.681,-1.315,-0.781,-0.725,-1.877
-6.178,-9.876,-1.375,-0.815,-1.145,-1.145
-5.636,-9.037,-1.007,-0.736,-0.988,-0.374
-4.242,-7.667,-0.547,-0.602,-1.105,0.037
-4.774,-6.827,-0.599,-0.675,-1.123,0.221
-4.174,-6.504,-0.623,-0.643,-0.029,-0.05
-3.111,-7.125,-0.568,-0.755,0.205,-0.38
-2.772,-7.61,-0.612,-0.901,-0.381,-0.603
-3.501,-8.039,-0.689,-1.032,-0.924,-0.622
-3.886,-8.155,-0.632,-0.962,-0.822,-0.478
-4.083,-8.09,-0.944,-0.754,-0.567,-0.151
-2.689,-6.838,-3.061,-0.283,-2.25,0.684
-2.85,-6.543,-4.618,0.149,-3.68,0.61
-5.918,-7.372,-7.515,0.591,-4.398,-0.109
-7.873,-7.977,-12.145,0.799,-4.37,-0.924
-7.44,-7.996,-13.927,0.703,-5.006,-1.717
-11.664,-7.444,-13.363,0.19,-4.183,-2.317
-12.077,-6.54,-12.313,0.005,-2.343,-1.883
-9.744,-6.163,-10.291,0.109,-1.528,-0.729
-13.461,-7.73,-10.117,0.477,-1.345,0.701
-18.8,-8.671,-13.015,0.584,0.432,2.196
-17.124,-9.89,-12.021,0.207,3.102,2.261
-17.5,-10.447,-13.891,0.448,1.262,1.629
-16.164,-10.34,-12.393,0.076,1.267,2.183
-10.028,-8.63,-7.827,-0.203,0.198,2.628
-4.578,-7.282,-3.855,0.37,-2.655,2.569
-3.817,-6.319,-5.022,1.697,-5.908,2.533
-4.798,-7.024,-5.014,1.919,-5.131,2.431
-8.053,-7.31,-8.847,2.431,-5.233,0.924
-9.104,-7.145,-11.057,2.85,-4.232,-0.625
-10.596,-8.425,-19.284,2.643,-3.077,-1.501
-11.171,-9.43,-18.307,2.485,-1.176,-1.381
-11.37,-10.408,-19.306,2.354,0.991,-0.618
-9.166,-13.514,-21.188,1.658,2.205,0.315
-9.9,-14.788,-22.814,0.342,2.685,0.886
-8.981,-14.063,-13.938,-0.862,4.125,0.289
-8.473,-14.144,-12.808,-2.348,4.714,-1.266
-8.576,-14.637,-8.845,-3.432,5.261,-3.277
-8.083,-12.307,-2.991,-2.798,4.834,-5.289
-6.929,-9.374,1.782,-2.247,3.374,-5.259
-6.905,-9.248,3.452,-1.652,1.588,-3.641
-6.926,-10.422,2.993,-0.879,-0.504,-0.993
-4.729,-8.726,1.484,0.062,-3.744,1.83
-4.099,-5.425,-1.405,-0.04,-5.516,3.842
-3.295,-5.283,-3.802,0.483,-5.997,3.23
-5.227,-5.397,-6.768,1.057,-5.962,1.447
-6.85,-3.599,-9.807,1.771,-4.536,-0.653
-10.148,-5.804,-21.084,1.387,-4.064,-2.406
-11.24,-5.614,-18.077,1.036,-4.037,-2.769
-18.218,-7.53,-19.621,1.375,-2.966,-1.963
-22.782,-9.221,-21.934,1.57,-0.483,-0.335
-22.032,-10.27,-21.285,0.8,0.761,0.81
-19.808,-6.769,-8.266,0.109,3.53,0.88
-20.06,-8.777,-7.791,-0.535,6.574,-0.906
-12.055,-15.778,-4.355,-0.45,8.532,-2.999
-7.849,-13.906,1.023,-1.619,5.039,-3.74
-8.755,-13.161,6.2,-1.391,2.615,-2.907
-9.948,-16.558,4.895,-0.205,1.265,-0.852
-6.774,-17.606,2.981,0.749,-1.147,2.109
-7.115,-8.406,1.317,0.462,-4.64,3.712
-7.441,-8.399,-3.624,1.445,-3.581,3.095
-5.001,-8.346,-8.908,1.943,-2.482,1.262
-4.373,-5.16,-15.469,1.862,-3.309,-0.54
-6.769,-3.394,-16.205,1.969,-1.995,-1.564
-10.626,-8.016,-23.724,1.267,-0.432,-0.71
-10.863,-8.616,-27.227,-0.136,0.683,0.915
-12.429,-7.897,-23.385,-1.967,2.193,1.749
-10.393,-7.414,-13.214,-2.47,4.371,0.357
-12.931,-16.81,-12.753,-2.372,3.098,-1.072
-13.679,-15.974,-2.338,-2.433,3.917,-0.982
-9.545,-19.05,6.506,-1.739,3.648,-0.876
-7.034,-18.763,4.914,-0.18,0.155,0.07
-9.154,-18.812,-2.27,0.501,-3.337,2.225
-7.155,-8.909,-4.333,0.47,-3.352,3.097
-3.849,-7.092,-10.677,1.144,-4.377,1.662
-6.53,-2.92,-14.959,1.573,-5.493,0.134
-7.316,-2.112,-18.345,1.65,-4.048,-1.362
-7.447,-2.348,-15.79,1.373,-3.1,-1.601
-10.677,-4.522,-16.027,1.327,-2.171,-0.975
-16.578,-6.444,-18.338,0.873,-1.419,0.866
-17.599,-6.453,-19.879,-0.07,0.547,2.248
-18.77,-7.432,-13.07,-1.566,2.594,2.571
-16.937,-8.401,-7.948,-1.867,5.138,0.655
-17.304,-14.79,-4.497,-2.098,4.35,-0.289
-13.954,-16.463,7.106,-2.401,4.351,0.188
-10.304,-18.371,10.28,-1.46,1.987,0.826
-10.399,-18.258,3.468,0.101,-1.427,1.923
-7.763,-17.023,-3.001,0.861,-3.487,3.724
-2.427,-10.048,-7.304,0.969,-4.419,4.132
-3.303,-7.371,-15.452,1.427,-5.608,1.978
-3.958,-5.084,-17.262,1.635,-4.184,0.104
-1.779,-6.127,-14.323,1.375,-3.656,-0.791
-6.084,-6.638,-11.344,1.08,-4.267,-0.711
-8.244,-6.067,-8.408,1.232,-2.372,-0.46
-5.15,-4.869,-5.178,1.482,-0.893,-0.106
-7.497,-9.283,-6.621,1.368,-0.461,0.261
-12.795,-13.688,-13.482,0.578,0.925,1.011
-14.048,-15.536,-17.269,-1.301,3.002,1.454
-13.92,-15.233,-12.485,-3.409,4.284,0.739
-10.242,-19.906,-9.542,-4.027,5.377,-0.892
-14.395,-18.923,-0.653,-4.643,3.236,-0.771
-13.113,-17.975,10.347,-2.855,3.461,0.016
-10.27,-19.179,7.134,-2.629,2.687,-0.197
-10.237,-19.518,4.554,-2.616,2.059,0.309
-13.576,-11.181,7.963,-3.031,2.059,0.309
-7.939,-18.61,2.661,-1.519,5.446,-1.694
-9.2,-17.687,3.449,-2.474,4.686,-2.199
-9.754,-18.87,11.023,-0.985,2.783,-0.999
-12.405,-18.446,6.411,1.149,-0.082,0.187
-10.653,-20.988,-3.393,2.367,-2.321,1.815
-10.011,-12.092,-6.998,1.65,-4.958,3.265
-8.345,-10.69,-14.627,1.688,-5.603,1.538
-9.498,-7.522,-17.76,1.782,-4.226,-0.214
-5.522,-7.331,-17.103,1.71,-2.22,-1.287
-6.593,-8.098,-15.414,1.437,-1.404,-0.904
-6.349,-7.325,-12.185,1.322,-0.023,-0.417
-3.117,-8.799,-13.196,1.061,1.139,0.487
-0.385,-13.779,-19.882,-0.102,0.887,1.168
-5.29,-15.666,-22.576,-2.176,0.296,2.367
-9.115,-15.832,-18.199,-4.07,1.718,2.171
-9.011,-14.65,-11.288,-4.662,2.975,0.235
-16.651,-18.56,-3.759,-4.959,1.0,-0.79
-19.943,-16.069,9.484,-3.81,2.029,0.09
-14.146,-17.177,14.095,-1.991,1.532,0.42
-10.766,-16.94,9.864,-0.049,-1.552,1.34
-9.319,-16.024,1.926,0.971,-4.358,3.404
-3.742,-10.747,-3.994,1.858,-4.243,3.786
-3.431,-8.598,-11.503,2.467,-5.043,1.847
-5.166,-7.888,-14.232,2.863,-4.253,0.043
-5.162,-7.666,-23.495,2.924,-2.963,-1.519
-6.792,-9.072,-22.302,2.271,-1.849,-1.583
-5.575,-7.181,-20.309,1.897,-0.198,-1.062
-4.415,-9.719,-21.986,1.098,0.562,-0.018
-4.896,-10.446,-27.091,-0.044,0.947,1.244
-8.245,-10.584,-19.782,-1.731,1.279,2.736
-9.531,-9.427,-17.034,-2.717,2.972,2.353
-8.682,-9.221,-12.773,-3.452,4.698,0.367
-11.266,-14.289,-8.018,-3.397,4.836,-1.629
-11.561,-13.523,4.501,-2.853,4.594,-1.562
-8.219,-16.32,9.573,-1.545,3.467,-0.961
-9.173,-18.011,5.316,-0.316,0.24,0.328
-7.753,-16.975,-0.764,0.838,-2.319,2.403
-4.037,-8.854,-4.083,1.129,-4.386,3.702
-4.098,-7.463,-10.979,1.655,-5.377,2.297
-5.569,-5.569,-16.137,1.949,-5.022,0.374
-3.819,-4.92,-15.583,1.977,-3.618,-1.08
-6.045,-6.446,-14.509,1.847,-2.905,-1.546
-6.696,-6.34,-14.919,1.965,-1.541,-1.262
-6.194,-9.37,-20.814,1.214,-0.727,-0.344
-9.039,-11.074,-25.721,-0.491,-0.506,1.415
-11.08,-11.387,-23.755,-2.189,1.076,2.427
-10.346,-10.835,-19.371,-3.449,2.921,1.256
-12.106,-19.97,-15.236,-3.849,4.3,-0.557
-14.099,-17.918,-3.342,-3.723,4.82,-0.731
-9.122,-17.751,7.807,-2.588,4.926,-1.008
-5.264,-17.132,6.919,-1.124,2.18,-0.839
-7.062,-16.494,2.399,-0.236,-1.313,1.069
-4.685,-4.687,0.74,-0.156,-3.885,2.65
-2.819,-2.922,-3.628,0.408,-5.015,1.743
-4.947,-0.849,-8.022,1.114,-5.584,-0.027
-9.552,-1.461,-9.025,1.62,-4.673,-1.581
-9.407,-2.933,-8.369,2.482,-2.164,-2.64
-9.175,-6.785,-19.07,3.119,-0.523,-2.68
-11.057,-10.342,-25.161,2.212,-1.01,-1.397
-17.979,-10.714,-28.885,0.875,-0.383,1.04
-17.793,-11.735,-26.003,-0.826,1.694,2.822
-16.086,-11.14,-21.398,-2.644,2.677,2.571
-18.457,-15.896,-7.556,-3.45,3.079,1.276
-17.799,-16.179,0.664,-2.386,5.982,0.331
-8.574,-17.417,8.718,-1.768,6.166,-0.544
-4.375,-17.536,7.359,-0.981,2.869,-0.544
-5.421,-17.565,1.93,-0.125,-0.623,0.941
-4.025,-8.966,-1.619,-0.094,-3.021,2.45
-2.107,-4.242,-3.776,-0.428,-5.429,2.07
-4.578,-2.487,-7.247,0.011,-6.387,0.229
-9.632,-0.686,-9.28,0.71,-5.022,-1.754
-10.225,-0.959,-8.572,1.335,-2.782,-3.264
-14.849,-4.18,-14.372,1.219,-1.75,-3.206
-15.007,-4.866,-16.826,1.019,-0.894,-2.299
-17.444,-4.332,-21.563,0.511,-1.326,-0.144
-20.952,-3.346,-22.059,-0.075,0.15,1.978
-20.774,-3.14,-18.999,-1.336,1.402,3.054
-14.238,-2.044,-9.508,-1.727,3.638,1.704
-15.347,-10.786,-5.557,-1.455,4.971,-0.109
-11.959,-12.292,1.921,-0.972,6.822,-1.629
-4.476,-14.813,5.653,-0.993,5.127,-1.92
-3.311,-16.882,3.719,-0.436,2.325,-1.017
-4.607,-16.932,0.039,0.142,-0.367,1.105
-1.415,-6.705,-1.358,0.068,-3.167,2.912
-0.854,-4.544,-4.632,0.254,-4.835,2.886
-2.826,-3.828,-7.623,0.93,-5.343,1.165
-5.212,-2.636,-9.635,1.666,-4.255,-0.905
-5.893,-3.549,-10.138,2.255,-3.298,-2.346
-10.855,-6.797,-16.601,1.875,-2.857,-2.406
-12.36,-8.513,-19.677,1.231,-2.269,-1.592
-15.486,-7.945,-23.911,0.349,-1.856,0.468
-19.182,-6.606,-25.164,-0.897,-0.915,2.613
-20.114,-5.552,-21.521,-2.518,0.821,3.622
-15.246,-3.786,-10.33,-2.741,3.413,2.078
-15.762,-10.276,-4.997,-2.3,4.667,0.451
-12.327,-11.214,3.503,-1.82,5.846,-0.66
-5.836,-13.97,8.368,-1.333,4.55,-0.954
-4.23,-15.639,6.473,-0.419,1.5,-0.33
-6.271,-16.426,0.554,0.164,-1.381,1.635
-3.36,-7.997,-1.395,0.34,-3.528,2.78
-3.155,-6.736,-5.81,0.915,-5.252,2.056
-6.904,-5.232,-10.563,1.637,-5.432,0.362
-8.839,-4.427,-12.004,2.125,-4.508,-1.185
-10.406,-4.0,-11.597,2.423,-3.227,-1.91
-11.874,-4.85,-13.345,2.426,-1.292,-1.755
-10.41,-5.613,-13.805,1.888,0.068,-1.2
-7.764,-5.658,-11.39,1.24,0.469,-0.514
-6.455,-5.035,-10.268,0.941,1.009,0.162
-4.506,-8.175,-14.082,0.587,1.212,0.847
-5.052,-12.036,-19.516,-0.409,0.966,1.402
-7.249,-11.741,-20.101,-1.906,1.638,1.7
-7.561,-9.389,-16.446,-2.893,3.486,0.567
-9.906,-15.984,-15.828,-2.878,5.073,-1.34
-14.72,-14.076,-7.624,-3.101,4.57,-1.527
-13.119,-11.907,4.169,-2.4,4.739,-1.2
-10.031,-12.397,6.912,-1.003,2.484,-0.463
-8.775,-14.745,2.734,0.314,-0.637,1.447
-3.282,-8.305,0.291,0.655,-3.452,3.424
1.899,-8.741,-3.919,1.321,-4.83,2.77
-0.472,-10.261,-11.038,1.68,-6.241,1.084
-3.626,-10.45,-12.846,1.986,-5.354,-0.409
-4.507,-10.896,-16.012,1.414,-5.507,-1.05
-9.344,-8.955,-12.148,1.295,-5.159,-1.225
-9.843,-7.125,-10.661,1.522,-2.06,-1.038
-10.2,-6.224,-11.468,1.186,-1.25,-0.035
-14.949,-8.643,-15.466,0.555,0.161,1.588
-15.378,-8.882,-12.69,-0.562,3.378,1.961
-13.426,-9.823,-12.197,-2.319,5.845,1.324
-12.869,-12.72,-11.24,-3.334,6.023,-0.312
-12.818,-14.649,-5.123,-3.29,5.265,-1.529
-6.784,-12.985,3.577,-2.973,4.818,-2.027
-6.532,-14.368,6.063,-1.792,2.779,-1.334
-10.502,-15.328,5.188,-1.097,2.779,0.421
-11.611,-12.361,7.512,-1.484,2.779,1.733
-7.944,-15.295,6.545,-1.072,5.346,0.88
-10.813,-16.938,4.578,-0.605,6.097,-0.323
-9.945,-15.146,7.385,-0.506,7.076,-1.118
-4.234,-16.082,6.996,-0.256,4.445,-1.343
-2.394,-17.046,3.683,0.169,0.953,-0.024
-4.075,-9.177,0.657,-0.245,-2.348,2.178
0.701,-4.735,-1.34,-0.476,-4.461,2.375
0.574,-3.223,-7.532,-0.015,-6.225,1.128
-4.269,-1.655,-9.703,0.512,-6.403,-0.645
-6.263,0.142,-10.902,1.415,-4.295,-2.445
-8.864,-2.453,-16.161,1.646,-3.046,-2.909
-18.717,-3.425,-23.122,0.878,-3.076,-1.346
-26.048,-5.429,-21.764,-0.581,-0.197,1.224
-22.058,-5.438,-15.105,-1.573,2.613,1.675
-22.435,-16.866,-13.199,-2.501,1.811,1.179
-22.128,-18.76,-3.157,-2.309,3.976,1.083
-12.928,-15.97,2.879,-1.694,3.038,0.416
-6.796,-14.189,0.45,-0.138,0.13,-0.243
-8.725,-14.927,-7.207,2.026,-1.262,-0.662
-9.227,-10.198,-15.822,2.27,-2.569,0.939
-13.721,-7.537,-22.233,1.669,-4.269,1.723
-19.25,-11.989,-24.763,0.921,-1.435,2.598
-21.283,-13.22,-21.635,-0.343,1.309,2.785
-17.53,-11.088,-15.982,-1.895,2.701,3.009
-16.268,-8.125,-8.369,-2.105,4.763,1.692
-10.288,-11.267,-2.338,-1.449,6.463,0.088
-5.83,-10.451,4.808,-1.022,5.816,-1.097
-1.95,-10.807,6.459,-0.691,4.323,-1.448
-2.503,-12.802,4.52,-0.63,1.426,0.264
-1.631,-10.169,4.395,-0.494,-0.636,2.382
0.17,-5.846,0.665,-0.963,-3.677,3.555
2.992,-5.185,-3.734,-0.559,-5.142,2.695
-0.718,-6.242,-7.077,-0.036,-6.763,0.875
-6.508,-6.056,-11.645,0.491,-5.939,-0.909
-8.216,-6.919,-13.253,0.857,-4.027,-2.021
-8.23,-6.798,-15.359,0.636,-3.479,-2.148
-11.611,-5.507,-13.421,0.557,-3.05,-1.427
-10.048,-3.002,-11.886,0.644,-1.646,-0.375
-10.784,-2.785,-11.203,0.215,-1.695,0.864
-16.615,-1.406,-12.566,-0.524,-1.297,2.333
-19.705,-1.986,-8.729,-1.219,1.197,3.328
-15.382,0.327,-4.621,-1.599,3.538,2.419
-15.905,-3.928,-5.22,-1.372,5.054,0.974
-12.726,-7.022,-1.092,-0.987,6.254,-0.042
-5.75,-8.798,3.894,-0.936,6.027,-0.777
-0.963,-10.746,4.614,-0.831,3.257,-1.008
-4.247,-14.007,0.821,-0.894,-0.235,0.709
-1.914,-8.658,1.731,-1.164,-3.066,2.233
-0.461,-4.245,0.74,-1.23,-5.358,2.072
-3.117,-3.76,-1.633,-0.723,-7.044,-0.038
-10.109,-3.415,-4.822,0.295,-5.928,-2.282
-9.812,-3.17,-6.267,1.252,-4.976,-3.991
-8.483,-2.42,-6.962,1.358,-4.378,-4.459
-9.279,-3.857,-8.212,1.363,-4.241,-4.905
-11.189,-3.955,-9.455,1.669,-2.795,-4.616
-3.134,-2.502,-13.916,2.461,-2.186,-4.137
-7.5,-2.373,-12.58,1.785,-3.138,-2.92
-10.716,-3.198,-10.882,2.342,-0.546,-2.71
-8.01,-3.582,-9.85,2.726,1.865,-1.532
-3.03,-5.866,-11.898,2.559,1.824,-0.282
-10.277,-11.256,-10.472,0.509,0.807,1.331
-6.653,-13.669,-13.921,-0.615,3.776,1.281
-4.828,-14.318,-12.596,-2.67,3.377,0.943
-5.002,-12.137,-10.511,-3.714,3.844,-0.958
-6.977,-14.721,-6.804,-3.65,5.128,-2.747
-4.377,-9.175,-0.668,-2.568,5.048,-3.745
-3.028,-8.841,4.396,-1.754,2.858,-3.048
-4.14,-11.152,4.283,-0.558,-0.036,-1.151
-8.171,-13.579,0.264,0.033,-2.368,1.507
-4.422,-5.744,-0.79,-0.128,-4.111,3.437
-1.323,-3.456,-1.585,-0.042,-4.933,3.084
-5.097,-3.272,-4.288,0.481,-5.162,0.919
-6.626,-1.731,-8.045,1.09,-3.276,-1.919
-6.043,-2.18,-9.907,1.411,-2.652,-3.641
-12.703,-3.311,-14.542,1.602,-2.507,-3.353
-19.292,-7.916,-21.199,1.032,-0.092,-1.549
-18.117,-7.67,-23.19,0.382,2.747,0.49
-13.638,-5.409,-18.941,-0.445,4.154,0.972
-11.726,-5.284,-14.497,-0.691,4.872,0.077
-8.223,-12.365,-9.01,-0.358,6.58,-1.501
-3.886,-10.513,0.573,-0.288,5.11,-2.446
-1.628,-8.506,1.533,0.271,2.057,-3.191
-3.665,-10.241,-2.31,0.666,-0.457,-2.7
-4.38,-9.554,-5.222,0.413,-2.401,-1.703
-5.371,-3.349,-5.437,-0.448,-5.122,-1.385
-7.121,-1.919,-9.656,0.028,-5.275,-2.467
-13.953,-4.009,-10.894,0.346,-4.4,-2.696
-25.722,-5.164,-13.216,0.688,-2.985,-0.959
-30.589,-6.006,-13.459,0.439,-0.368,1.496
-30.439,-6.908,-10.03,-0.232,2.651,3.585
-26.047,-5.319,-1.363,-0.187,4.82,3.14
-21.357,-14.545,-0.141,0.424,6.746,2.299
-11.549,-15.295,5.024,-0.099,6.333,1.408
-5.979,-17.588,9.383,-0.237,3.775,0.969
-4.188,-17.185,6.857,1.009,2.417,-0.786
-7.118,-20.501,-0.696,1.224,0.755,0.07
-13.678,-13.512,-0.863,0.887,-0.905,1.75
-20.444,-14.279,-9.068,1.454,0.492,2.912
-24.273,-12.826,-13.215,0.892,3.182,3.211
-23.391,-10.009,-6.023,-0.209,4.539,3.149
-15.718,-16.777,-5.343,0.699,6.201,1.835
-13.836,-16.446,-0.709,-0.47,6.196,1.263
-6.012,-18.655,9.354,-1.384,4.514,1.209
2.589,-15.248,10.573,-0.491,1.928,0.746
1.674,-15.626,0.955,0.225,-1.223,1.784
-6.914,-8.363,-1.917,-0.996,-4.677,2.638
-0.081,-3.328,-3.016,-1.513,-2.656,1.879
-2.497,0.078,-7.424,-1.147,-3.731,-0.469
-11.283,-2.29,-7.087,-1.222,-3.466,-2.079
-12.593,-4.62,-4.155,-1.198,-2.449,-2.975
-12.756,-4.713,-2.132,-1.094,-1.237,-2.446
-15.191,-6.427,-3.204,0.233,-2.379,-2.033
-12.667,-5.121,-1.724,0.51,-0.486,-1.318
-9.384,-5.156,-0.926,0.743,0.728,-0.871
-13.818,-7.675,-2.417,0.753,0.504,0.145
-21.95,-8.485,-3.901,0.246,1.852,2.19
-23.482,-11.038,-2.289,-0.881,2.62,4.022
-19.583,-9.495,4.401,-1.892,3.599,3.869
-22.32,-17.878,8.03,-1.668,5.091,2.144
-17.789,-17.975,14.806,-1.271,7.449,2.092
-6.466,-18.922,17.861,-1.431,5.634,1.596
-1.485,-16.848,14.557,-0.5,2.515,0.708
-5.429,-16.718,5.438,0.459,-0.978,1.26
-2.412,-6.626,-0.229,0.401,-3.313,2.628
-1.741,-4.204,-7.677,-0.036,-6.511,1.39
-6.113,-1.926,-9.613,0.307,-7.107,-0.357
-9.981,-2.084,-8.121,0.262,-5.645,-1.788
-10.778,-3.689,-6.021,0.396,-3.785,-2.683
-12.117,-4.624,-5.098,0.421,-3.163,-2.719
-13.663,-4.896,-4.307,0.529,-1.539,-2.321
-18.34,-6.954,-6.663,0.704,0.067,-0.979
-24.915,-6.776,-10.69,0.47,1.235,1.294
-27.215,-8.68,-8.82,-0.644,2.867,3.421
-24.666,-6.155,0.353,-0.928,4.581,3.217
-22.467,-17.424,0.89,0.057,6.155,2.613
-17.524,-17.475,10.132,-0.265,6.31,2.158
-7.395,-19.528,15.406,-0.259,4.426,1.424
-3.928,-18.741,14.431,0.428,0.933,0.862
-4.314,-20.656,7.777,0.653,-2.559,2.119
-6.419,-9.153,8.325,-0.303,-4.295,2.261
-5.47,-7.144,1.726,0.364,-4.067,1.368
-8.557,-5.177,-2.229,0.988,-3.101,0.205
-15.055,-2.926,-6.594,1.321,-1.652,-0.423
-28.637,-3.619,-9.245,1.25,1.005,0.646
-31.031,-5.469,-8.215,0.383,2.62,3.103
-29.233,-6.319,-4.579,-0.636,3.935,3.809
-26.762,-11.571,3.034,-0.803,5.129,2.983
-23.7,-16.633,11.588,-0.713,7.173,2.386
-8.214,-17.757,15.149,-1.395,5.511,1.479
-3.45,-15.958,15.635,-1.014,2.139,0.703
-5.06,-14.959,12.434,-0.203,-1.354,0.94
-5.646,-8.54,6.704,-0.108,-3.516,1.511
-3.669,-4.777,1.125,-0.184,-6.211,0.743
-10.231,-4.399,-1.832,0.387,-5.997,-1.112
-12.634,-4.701,-4.17,0.879,-4.118,-3.132
-12.598,-5.392,-4.521,1.032,-2.129,-4.474
-17.013,-9.863,-9.447,0.357,-2.872,-3.983
-17.341,-9.493,-7.742,0.263,-1.263,-2.986
-13.123,-9.291,-6.732,0.481,0.002,-1.748
-11.999,-10.745,-9.462,0.155,-0.82,-0.374
-21.278,-11.74,-10.613,-0.5,-2.516,2.045
-23.232,-11.92,-4.592,-0.525,0.642,3.751
-22.449,-13.523,-2.965,-1.465,1.727,5.135
-18.122,-10.87,0.928,-2.138,2.747,3.824
-20.753,-16.998,7.101,-1.154,5.046,2.016
-11.469,-17.704,13.834,-0.626,8.246,1.194
-0.833,-16.155,15.14,-0.773,6.633,0.484
-0.194,-14.142,12.59,-0.331,3.141,-0.019
-3.53,-15.111,7.022,0.199,0.425,1.471
2.473,-5.156,2.966,-0.525,-2.199,2.81
3.707,-2.9,-3.864,-0.545,-5.11,1.46
-1.972,-0.751,-7.731,0.33,-5.43,-0.453
-2.751,-1.801,-9.967,1.267,-3.621,-2.166
-4.813,-3.427,-10.153,1.836,-2.348,-3.138
-7.033,-7.226,-12.819,2.343,-0.897,-3.273
-6.254,-10.052,-17.056,1.645,-0.322,-2.366
-11.132,-12.7,-21.509,0.296,-1.548,0.138
-15.375,-14.236,-20.829,-1.146,-0.101,2.544
-14.556,-14.637,-16.994,-2.83,1.341,3.395
-15.102,-17.938,-5.146,-3.825,2.65,2.414
-17.491,-17.478,5.664,-2.54,4.987,1.952
-9.596,-16.173,14.254,-1.359,6.432,0.876
-4.211,-15.746,15.811,-0.297,3.419,0.161
-4.997,-16.625,11.775,0.985,-0.035,0.65
-4.545,-11.287,2.258,1.663,-2.978,2.055
-3.938,-10.009,-4.905,1.091,-5.776,1.953
-6.991,-9.128,-8.813,1.036,-6.43,0.734
-9.772,-8.007,-10.777,1.152,-5.288,-0.932
-10.411,-6.215,-10.598,1.344,-3.441,-2.224
-14.03,-6.198,-13.948,1.2,-2.622,-2.218
-18.184,-6.504,-16.227,0.504,-2.592,-0.825
-25.542,-6.49,-17.873,0.208,-1.289,1.587
-25.687,-8.23,-15.395,-0.715,0.819,3.782
-24.971,-8.318,-10.109,-1.919,2.426,4.054
-21.236,-13.383,-1.086,-1.244,4.549,2.472
-17.322,-15.149,7.591,-1.365,5.121,1.779
-7.632,-16.487,13.572,-1.53,3.027,1.279
-6.26,-13.749,14.159,-0.724,-0.465,1.001
-5.627,-12.961,10.583,0.416,-3.373,1.264
-6.042,-6.237,5.342,-0.35,-6.33,1.857
-8.509,-3.677,0.224,-0.117,-6.691,0.248
-12.632,-2.802,-3.01,0.18,-4.866,-2.314
-14.644,-4.754,-5.89,0.173,-3.408,-4.164
-16.592,-5.434,-6.802,0.025,-1.854,-4.437
-17.629,-6.537,-7.233,0.175,-0.28,-3.627
-14.001,-5.999,-7.833,0.602,0.651,-2.231
-14.642,-5.62,-9.415,0.217,-0.92,-0.12
-20.721,-3.335,-9.708,0.111,-0.687,2.012
-23.98,-3.846,-9.647,-0.539,0.041,4.06
-24.839,-5.287,-6.277,-1.557,1.424,4.953
-22.982,-6.641,-0.769,-1.717,3.05,3.647
-21.014,-11.871,4.134,-0.709,6.289,2.678
-10.946,-15.028,10.081,-1.192,5.617,1.952
-5.218,-15.677,12.012,-0.95,2.963,1.137
-2.057,-14.275,11.316,0.283,-0.53,0.628
-6.764,-11.323,7.412,0.463,-4.022,1.005
-7.838,-5.28,3.718,-0.007,-6.102,-0.067
-12.348,-3.107,-1.678,0.56,-5.837,-1.847
-16.724,-2.776,-3.824,0.71,-4.422,-3.529
-19.734,-3.267,-5.035,0.37,-2.092,-4.207
-17.108,-4.896,-5.393,0.38,0.057,-3.589
-14.538,-4.866,-5.384,0.332,0.275,-2.457
-13.478,-5.25,-7.104,0.089,-0.11,-1.171
-18.333,-3.845,-9.16,0.009,-0.869,0.83
-23.077,-3.366,-10.968,-0.277,-0.284,2.9
-24.303,-3.652,-8.662,-1.068,1.059,4.397
-23.176,-3.427,-1.172,-1.307,2.92,3.657
-19.78,-10.325,3.936,-0.304,4.553,2.923
-11.259,-14.481,9.605,-0.186,5.168,2.196
-3.743,-16.668,13.346,-0.056,2.254,1.312
-3.097,-16.421,12.217,0.947,-1.238,0.207
-6.299,-16.254,5.98,1.098,-4.731,0.346
-10.355,-8.526,3.587,0.164,-5.826,-0.14
-13.892,-5.393,0.491,-0.013,-5.966,-1.702
-19.001,-3.202,-2.08,-0.017,-3.854,-3.156
-19.221,-3.04,-3.447,-0.325,-1.603,-3.635
-17.606,-3.533,-3.752,-0.201,0.059,-3.035
-15.014,-3.999,-4.051,0.008,0.35,-2.118
-12.708,-3.896,-4.695,0.158,0.68,-0.943
-12.352,-4.839,-5.508,0.094,-0.723,0.343
-19.121,-2.9,-6.502,0.198,-1.646,1.871
-23.157,-2.72,-5.593,-0.011,0.183,3.447
-23.435,-4.232,-2.709,-0.785,1.95,3.969
-24.632,-5.371,3.991,-0.839,3.767,2.833
-19.795,-9.093,9.957,-0.153,6.551,2.202
-10.402,-13.446,13.709,-0.39,6.443,1.208
-5.186,-15.114,14.633,-0.518,2.95,0.512
-3.693,-15.351,14.616,0.382,-0.542,0.625
-5.454,-14.184,10.214,0.48,-4.035,1.372
-9.231,-9.561,6.303,-0.066,-5.99,0.678
-13.462,-7.956,3.944,-0.087,-5.871,-0.392
-17.222,-6.738,2.556,0.134,-4.067,-1.834
-19.626,-5.182,-0.068,0.175,-1.645,-3.035
-21.665,-4.901,-4.748,0.373,0.475,-2.788
-17.826,-5.251,-4.745,0.864,2.36,-2.075
-14.038,-4.773,-5.132,1.229,3.174,-1.106
-11.057,-5.942,-7.344,1.276,3.064,-0.285
-10.26,-7.975,-11.42,0.58,1.187,0.762
-15.184,-7.649,-10.766,-0.412,0.018,2.108
-21.28,-9.101,-9.692,-1.869,0.088,3.68
-23.051,-11.034,-7.782,-3.364,1.428,3.651
-29.878,-9.909,-9.431,-3.95,-0.194,4.788
-35.048,-8.884,-6.415,-4.106,2.688,5.995
-25.439,-10.005,-2.425,-4.378,5.229,5.326
-20.578,-9.306,-0.703,-3.826,5.229,2.689
-19.425,-12.414,0.753,-1.928,5.229,2.027
-13.235,-13.485,9.023,-1.748,5.775,0.791
-5.696,-13.535,12.193,-1.166,2.72,-0.048
-4.086,-14.048,12.539,0.301,-0.773,0.072
-6.47,-13.415,9.22,1.056,-4.265,0.917
-9.15,-6.855,5.354,0.706,-6.522,0.787
-10.315,-6.341,-0.55,1.104,-5.923,-0.113
-15.095,-5.409,-3.366,1.199,-5.228,-1.593
-17.731,-3.958,-5.955,0.759,-3.331,-2.994
-16.414,-3.607,-6.125,0.599,-1.119,-3.294
-14.585,-4.973,-5.442,0.7,-0.21,-2.922
-15.325,-4.683,-6.832,0.755,0.248,-1.943
-11.674,-5.014,-7.98,0.641,0.811,-1.18
-14.336,-6.202,-9.803,0.331,-0.935,0.298
-21.37,-6.063,-11.462,-0.004,-1.127,2.232
-21.681,-9.983,-9.372,-0.139,-0.624,2.09
-17.677,-10.718,-4.411,-0.668,-1.674,2.444
-16.655,-10.721,-0.443,-0.985,-3.304,3.161
-12.85,-9.824,2.288,-0.451,-3.206,2.922
-3.593,-9.591,3.924,0.103,-4.401,1.262
-4.041,-4.333,0.655,0.142,-6.548,0.959
-8.13,-3.223,-3.424,0.733,-5.881,-0.453
-11.706,-2.27,-7.296,1.371,-4.294,-1.977
-12.165,-2.4,-9.241,1.398,-2.932,-3.124
-14.148,-3.033,-9.819,1.141,-1.83,-3.244
-13.214,-4.289,-9.43,1.022,-0.531,-2.564
-10.997,-5.031,-10.567,0.929,-0.459,-1.512
-10.733,-6.949,-10.749,0.744,-1.082,-1.42
-5.549,-9.84,-5.296,-0.236,-1.187,-0.394
-2.36,-10.275,-3.137,-1.139,-2.701,0.74
-2.91,-10.036,-2.474,-1.599,-4.174,1.766
0.506,-7.999,0.65,-1.358,-4.43,2.032
5.743,-4.377,1.866,-0.995,-4.957,2.473
1.666,-1.239,-3.611,-0.047,-6.464,1.004
-3.33,0.083,-6.464,0.964,-5.638,-0.913
-3.944,-0.534,-7.753,1.717,-3.946,-2.622
-6.602,-2.333,-8.957,1.955,-2.991,-3.417
-8.999,-4.733,-8.786,1.853,-1.457,-3.362
-9.523,-6.448,-9.186,1.749,0.248,-2.211
-9.305,-11.325,-14.487,1.033,0.794,-0.412
-12.731,-10.304,-17.238,-0.156,-1.225,2.084
-19.599,-9.844,-15.152,-1.056,0.205,4.242
-18.649,-9.365,-7.288,-1.885,1.727,4.462
-17.113,-9.985,-2.32,-1.471,3.514,3.147
-16.321,-13.027,5.327,-0.89,4.298,2.241
-11.46,-14.684,12.062,-0.716,5.634,1.414
-3.541,-15.856,10.947,-1.045,2.141,0.668
-4.924,-14.794,3.746,-0.681,-1.122,1.187
-3.865,-10.635,1.256,-0.972,-4.177,1.954
-3.441,-4.182,-0.804,-1.076,-6.659,0.831
-9.638,-3.952,-4.771,-0.407,-7.009,-1.356
-13.723,-3.504,-7.47,0.62,-4.95,-3.197
-15.607,-3.7,-8.356,0.857,-4.215,-4.116
-20.753,-0.943,-11.78,0.784,-2.908,-3.688
-25.861,0.37,-12.89,0.523,-1.441,-1.367
-27.046,-1.169,-11.433,0.337,-0.531,1.647
-26.419,-1.199,-10.125,-0.013,0.902,4.098
-19.426,1.211,-7.904,-0.393,3.431,3.888
-16.412,-5.111,-3.198,-0.425,5.061,2.463
-11.283,-11.897,1.027,0.532,7.002,0.725
-3.542,-9.728,4.021,0.016,6.322,-0.5
2.482,-9.913,7.768,-0.264,2.849,-1.351
-4.741,-12.699,9.453,0.035,-0.644,0.016
-5.508,-10.115,7.12,0.434,-3.137,1.123
-4.2,-3.487,3.239,0.21,-5.426,1.103
-7.599,-4.749,-2.537,1.09,-5.588,-0.202
-13.207,-4.457,-6.538,1.68,-4.256,-1.658
-12.219,-5.214,-10.291,2.055,-2.807,-3.028
-14.349,-6.195,-13.76,1.501,-2.591,-2.566
-17.69,-7.889,-14.416,0.725,-2.175,-1.259
-20.895,-7.894,-14.817,0.084,-1.41,1.015
-21.362,-7.807,-14.195,-0.75,0.313,3.062
-20.539,-7.826,-12.033,-1.875,2.356,3.644
-18.937,-8.952,-11.068,-1.552,2.464,3.446
-23.21,-9.616,-14.201,-1.437,1.979,3.936
-25.392,-8.72,-13.917,-1.443,2.464,4.192
-24.728,-9.14,-11.279,-1.522,2.883,4.284
-23.453,-8.051,-8.198,-1.192,2.883,3.891
-21.765,-10.627,-1.907,-0.697,5.17,2.681
-18.075,-12.732,5.806,-0.12,6.836,1.499
-8.488,-15.072,10.532,-0.349,5.915,0.86
-6.123,-14.526,9.017,-0.03,2.423,0.605
-6.64,-15.232,3.134,0.371,-1.07,1.605
-4.921,-10.145,-1.391,-0.318,-4.027,2.506
-1.953,-6.915,-4.89,-0.759,-6.435,1.741
-6.239,-5.161,-7.849,-0.319,-7.148,-0.386
-8.762,-4.999,-9.19,0.133,-5.755,-2.485
-11.494,-2.924,-11.884,0.483,-4.802,-3.453
-20.041,-3.662,-12.195,0.616,-3.258,-2.779
-26.044,-4.206,-11.792,0.743,-1.766,-0.149
-27.843,-3.904,-10.846,1.034,0.606,2.618
-26.282,-3.096,-7.249,0.77,2.705,4.382
-20.356,-3.785,0.71,0.897,5.244,3.189
-14.742,-15.121,3.016,2.203,6.658,1.467
-9.258,-14.064,6.414,1.744,5.903,-0.059
-2.55,-14.642,9.219,1.25,4.191,-0.569
-2.207,-16.518,6.444,1.43,0.699,0.063
-5.932,-18.096,1.384,1.204,-2.708,2.26
-3.639,-6.931,-1.24,-0.163,-5.259,3.548
-1.816,-7.508,-6.393,0.123,-5.61,2.507
-6.638,-6.978,-10.545,0.26,-6.571,0.477
-8.325,-5.446,-11.547,0.541,-4.908,-1.605
-9.059,-5.833,-12.981,0.681,-3.109,-2.559
-10.17,-5.692,-11.812,0.678,-2.143,-2.529
-11.129,-6.189,-11.045,0.837,-1.06,-1.541
-13.501,-8.598,-11.766,0.833,-0.546,0.466
-18.984,-9.47,-13.72,0.374,0.727,2.683
-18.922,-9.268,-10.045,-0.716,2.335,3.938
-16.894,-8.31,-6.365,-1.391,3.921,3.324
-16.911,-8.865,-2.732,-1.247,5.552,1.564
-13.374,-9.841,0.875,-0.727,6.726,-0.497
-5.756,-9.263,6.886,-0.929,5.11,-1.33
-6.842,-11.771,6.617,-0.656,1.718,-0.586
-7.516,-13.439,4.46,0.154,-0.932,1.334
-4.578,-10.386,1.628,0.464,-4.23,3.277
-3.104,-6.619,-1.492,0.598,-6.156,3.28
-6.35,-7.673,-7.411,1.289,-6.315,1.402
-7.588,-7.101,-11.105,1.765,-5.199,-1.138
-9.17,-6.972,-13.128,1.643,-4.52,-3.008
-12.478,-8.677,-16.289,1.041,-4.145,-3.408
-12.593,-7.356,-14.416,0.779,-2.026,-2.543
-10.023,-6.527,-11.339,0.869,-0.71,-1.393
-9.333,-7.102,-8.96,1.328,0.386,-0.28
-13.358,-11.477,-10.429,1.47,2.064,1.231
-12.465,-13.873,-10.414,1.02,4.987,1.918
-10.061,-15.782,-11.527,-0.573,6.228,1.456
-8.131,-14.27,-9.24,-1.826,7.158,-0.344
-9.3,-18.326,-6.918,-2.302,7.423,-2.388
-7.834,-15.797,-1.642,-2.195,7.396,-3.288
-5.774,-14.6,4.469,-2.175,5.517,-2.865
-6.399,-14.816,6.365,-0.993,2.174,-1.007
-8.189,-16.443,3.598,0.114,-1.234,1.82
-3.084,-9.985,-0.335,0.493,-2.434,3.88
2.466,-8.927,-5.004,0.491,-4.582,3.692
-0.73,-8.975,-9.387,1.243,-5.549,2.179
-2.374,-8.968,-12.04,1.934,-4.039,0.33
-1.473,-9.036,-12.579,2.047,-2.706,-1.066
-4.738,-8.78,-14.274,1.701,-2.353,-1.41
-4.731,-7.759,-12.048,1.449,-1.673,-1.245
-2.102,-6.766,-8.784,1.486,-0.571,-0.915
-0.897,-6.363,-6.099,1.334,-0.231,-0.54
-0.383,-7.696,-4.47,1.037,0.195,-0.204
-0.483,-10.626,-0.11,0.761,-0.183,0.114
-1.551,-12.959,-1.394,0.984,0.09,0.44
-6.006,-17.414,-5.644,0.624,-1.531,0.952
-13.643,-18.978,-9.796,-0.475,-0.736,1.745
-15.856,-19.316,-9.233,-2.359,0.997,1.467
-13.634,-18.444,-8.014,-3.791,3.136,-0.528
-16.855,-24.251,-3.706,-4.331,3.6,-2.601
-17.031,-19.256,4.048,-4.442,5.904,-3.195
-8.022,-19.127,8.779,-3.963,4.893,-2.705
-6.125,-18.144,8.868,-2.322,1.404,-0.926
-6.42,-16.38,7.671,-0.339,-1.709,1.884
-4.103,-8.895,3.938,0.353,-3.383,4.074
-0.174,-9.984,-1.499,0.884,-5.011,4.056
-4.317,-9.149,-5.982,1.198,-5.806,2.168
-7.443,-8.785,-9.14,1.284,-4.849,-0.085
-10.214,-9.782,-15.907,1.31,-3.682,-1.696
-12.007,-12.719,-23.131,0.368,-2.527,-1.584
-16.963,-12.813,-25.25,-0.993,-2.505,0.172
-17.444,-12.759,-22.56,-1.56,-0.001,1.83
-18.757,-13.928,-22.775,-1.188,1.419,3.08
-22.808,-15.276,-20.339,-1.662,1.769,5.005
-25.733,-12.742,-14.364,-1.675,2.662,5.815
-21.811,-10.592,-9.134,-1.035,5.33,4.462
-20.584,-9.561,-7.54,-0.991,5.33,2.336
-20.058,-10.427,0.164,-0.856,6.441,0.067
-14.624,-8.496,5.326,-0.559,6.52,-1.608
-12.202,-8.404,9.12,-0.429,4.981,-1.606
-11.847,-11.85,7.575,-0.067,2.9,-0.04
-8.467,-12.836,6.122,0.525,-0.246,2.649
-3.92,-11.163,-1.115,0.227,-3.247,5.229
-1.222,-12.251,-4.396,0.203,-4.258,5.577
1.044,-13.939,-8.04,0.829,-4.703,3.733
-0.276,-14.275,-10.689,1.044,-5.139,1.611
-0.452,-13.287,-12.723,0.859,-3.219,0.095
-1.209,-13.668,-13.55,0.33,-2.571,-0.495
-5.294,-15.539,-15.988,-0.748,-2.752,0.238
-8.402,-14.569,-19.171,-2.303,-1.939,1.867
-7.844,-11.305,-16.453,-3.834,0.002,2.901
-9.879,-10.381,-11.541,-4.663,1.228,2.281
-10.434,-10.075,-7.393,-4.046,3.581,0.417
-8.815,-8.388,-1.618,-2.657,6.291,-0.986
-5.189,-6.409,5.448,-2.039,5.322,-1.424
-3.052,-7.421,8.822,-1.115,2.406,-0.842
-5.895,-7.673,7.145,0.004,-1.086,0.543
-5.435,-5.235,4.169,0.093,-2.884,1.957
-3.335,-2.298,2.538,-0.218,-5.736,1.657
-7.362,-4.07,-0.614,0.587,-5.856,-0.251
-12.39,-4.329,-5.322,1.393,-3.801,-2.627
-10.175,-5.286,-9.093,2.107,-1.784,-3.976
-11.836,-4.375,-8.15,1.838,-2.547,-4.445
-14.516,-4.998,-9.408,1.787,-1.629,-4.607
-13.608,-3.497,-8.854,1.671,-1.049,-4.29
-12.783,-3.001,-8.596,1.552,-1.349,-3.858
-13.344,-2.304,-6.091,1.108,-1.111,-3.802
-12.54,-3.626,-7.139,1.689,-0.207,-3.407
-15.974,-3.262,-11.504,1.662,-0.532,-2.065
-19.759,-3.556,-13.874,0.997,-1.546,-0.033
-23.725,-4.391,-11.63,0.402,0.192,2.275
-23.646,-6.349,-10.473,-0.88,1.429,3.164
-22.949,-8.382,-7.016,-2.267,3.048,2.818
-19.57,-12.329,3.469,-2.161,4.727,1.854
-13.803,-14.488,8.711,-1.021,8.099,0.695
-4.037,-14.03,9.613,-0.732,5.365,-0.354
-3.562,-12.754,9.852,0.167,1.873,0.027
-4.483,-12.575,6.568,1.44,-0.927,1.123
-3.16,-8.995,-0.405,1.721,-3.032,1.789
-4.612,-7.423,-5.43,1.47,-5.478,1.24
-9.349,-6.843,-9.049,1.727,-4.731,-0.019
-14.691,-8.722,-13.225,0.973,-4.731,0.357
-22.378,-8.727,-12.265,0.139,-1.892,1.363
-23.6,-10.945,-8.417,-1.342,0.79,1.954
-23.93,-11.482,-1.165,-2.77,3.236,2.052
-21.904,-16.356,4.87,-2.918,5.224,1.639
-16.491,-16.14,11.033,-2.39,6.988,0.963
-6.78,-16.832,13.232,-2.141,3.984,0.431
-4.902,-15.043,11.943,-0.964,0.491,0.437
-3.731,-12.463,6.715,0.266,-3.001,0.571
-5.464,-6.136,1.4,0.22,-5.551,0.765
-8.242,-4.336,-2.746,0.429,-6.1,-0.757
-12.496,-2.906,-5.782,0.591,-5.035,-2.613
-15.392,-2.629,-6.741,0.635,-3.375,-3.887
-16.767,-3.498,-8.51,0.861,-1.729,-3.855
-20.926,-5.1,-13.128,0.63,-1.603,-2.342
-26.534,-3.741,-14.406,0.556,-1.091,0.26
-27.771,-4.206,-12.832,-0.016,0.848,2.723
-25.627,-4.03,-9.496,-0.818,2.68,3.588
-21.475,-5.579,-4.949,-0.998,4.526,2.472
-19.298,-9.809,1.781,-0.667,6.61,1.269
-9.036,-12.342,7.116,-1.123,6.37,0.343
-3.638,-11.44,8.979,-0.96,2.878,-0.212
-3.955,-11.93,6.127,-0.304,-0.615,0.451
-5.411,-9.489,3.474,-0.3,-3.594,2.039
-1.535,-4.134,1.114,-0.3,-5.79,2.128
-3.922,-2.553,-2.711,0.273,-6.518,0.629
-9.245,-3.041,-6.594,0.642,-5.427,-1.261
-10.559,-3.345,-7.482,0.752,-3.897,-2.756
-12.938,-4.583,-7.668,0.919,-2.522,-3.31
-13.948,-5.121,-7.353,1.236,-1.49,-2.906
-15.073,-4.998,-8.632,1.521,-0.383,-1.846
-12.295,-5.562,-9.768,1.665,0.585,-0.677
-16.111,-6.44,-12.045,1.299,-0.423,1.145
-23.359,-6.79,-13.03,0.828,1.17,2.918
-25.535,-8.628,-9.583,-0.762,2.675,3.815
-19.905,-6.833,-2.685,-1.264,4.301,1.868
-25.507,-15.018,-1.342,-1.902,5.133,0.448
-19.704,-16.027,6.069,-2.318,6.346,0.246
-9.901,-16.067,7.757,-2.726,3.837,-0.153
-4.642,-13.673,4.975,-2.126,1.1,-0.073
-5.083,-13.856,0.316,-2.525,-2.194,2.157
2.797,-1.74,1.341,-2.551,-5.085,3.469
3.923,3.113,-3.034,-2.526,-6.448,2.193
2.946,5.363,-2.395,-2.69,-7.421,0.576
-0.853,6.232,-1.204,-2.925,-7.702,-0.989
-5.416,8.241,-0.17,-2.418,-7.01,-2.618
-7.842,4.818,0.88,-2.094,-5.77,-3.632
-10.751,2.959,4.041,-1.58,-4.393,-4.028
-12.988,1.795,5.82,-0.871,-2.808,-3.703
-16.567,1.209,5.598,-0.032,-1.865,-2.901
-25.623,-0.023,3.066,-0.253,0.135,-1.326
-30.195,1.687,7.405,-0.644,2.388,0.369
-29.438,0.926,10.225,-1.256,4.132,1.128
-26.881,-1.048,11.122,-0.692,6.04,-0.332
-22.823,-4.918,10.985,-0.393,7.314,-0.862
-12.252,-8.683,14.737,-0.634,5.646,-0.686
-4.459,-11.288,11.041,-0.446,3.187,-0.542
-1.768,-10.628,6.177,0.112,-0.306,0.468
-4.058,-8.483,0.657,-0.422,-3.798,2.604
-2.875,-4.469,-1.602,-0.726,-5.051,2.92
-2.774,-3.011,-5.307,-0.258,-5.291,1.748
-7.307,-1.88,-6.826,-0.145,-6.162,0.269
-11.734,-2.095,-7.717,-0.09,-4.71,-1.319
-10.339,-2.13,-6.783,0.065,-2.71,-2.148
-12.43,-3.325,-7.324,0.036,-2.791,-2.127
-19.866,-3.931,-7.957,0.02,-2.575,-1.001
-24.629,-2.539,-10.132,0.114,-0.566,0.813
-24.865,-2.932,-9.863,-0.332,1.295,2.533
-24.51,-4.675,-6.657,-1.278,2.645,3.257
-24.208,-6.218,-0.812,-1.82,4.78,2.352
-16.19,-11.861,3.078,-1.473,7.073,0.676
-8.069,-13.543,7.251,-1.498,5.923,-0.013
-7.786,-13.279,6.824,-1.226,5.863,-0.323
-10.767,-16.451,-0.338,-0.125,6.005,0.179
-10.741,-15.759,-6.875,-0.045,4.446,2.168
-11.852,-8.424,-8.003,-1.167,4.219,3.555
-11.868,-5.511,-5.535,-1.517,6.691,1.92
-10.618,-7.119,-4.286,-0.703,6.931,-0.721
-2.938,-6.955,1.417,-0.378,5.19,-2.506
-2.692,-5.404,4.622,-0.314,4.081,-3.003
-0.001,-7.396,5.236,0.035,1.515,-2.318
-1.515,-9.987,2.307,0.241,-1.977,-0.053
-0.757,-8.181,0.673,-0.3,-5.47,2.262
-5.034,-2.204,-0.687,-1.04,-6.551,3.168
-3.897,-1.493,-2.3,-0.859,-6.339,1.967
-8.058,-1.37,-2.96,-0.796,-6.743,0.251
-10.874,-1.4,-3.592,-0.739,-5.953,-1.661
-12.675,-1.97,-3.736,-0.873,-4.852,-2.66
-17.786,-3.477,-2.576,-0.967,-4.512,-2.511
-24.155,-4.079,-1.587,-0.528,-3.212,-0.982
-28.249,-2.197,-2.583,-0.294,-0.428,1.207
-26.986,-1.79,-0.877,-0.496,2.274,2.864
-22.586,-0.439,4.402,-0.472,4.666,2.448
-18.585,-5.555,6.536,0.482,7.148,1.24
-11.973,-7.711,7.207,0.619,8.259,0.298
-4.389,-9.611,9.661,0.252,5.423,-0.489
-0.85,-10.043,8.459,0.537,1.957,-0.614
-3.121,-11.678,4.459,0.676,-1.536,1.126
-3.448,-5.426,1.025,0.157,-4.243,2.404
-2.627,-3.394,-1.099,0.143,-5.767,2.062
-3.52,-2.779,-5.203,0.942,-4.716,0.6
-7.085,-2.763,-8.564,1.264,-3.502,-1.012
-8.386,-2.606,-12.94,1.491,-1.908,-2.229
-12.433,-6.23,-16.721,0.976,-1.745,-1.61
-13.076,-6.69,-13.126,0.116,-0.177,-1.324
-16.712,-6.423,-6.882,0.106,2.021,0.511
-13.564,-5.879,-0.457,-0.155,4.273,0.577
-12.89,-12.661,6.85,0.796,6.171,-0.065
-6.064,-14.066,14.392,0.429,6.307,-0.496
-5.516,-15.107,14.161,0.294,2.839,0.673
-2.299,-14.909,11.332,-0.247,-0.653,0.65
-3.455,-13.031,5.803,-0.322,-3.733,1.607
-1.165,-1.871,1.356,-1.882,-5.753,2.063
-0.711,4.614,-2.938,-1.431,-6.071,0.571
-3.654,6.865,-4.888,-1.309,-5.669,-1.529
-5.136,6.794,-5.622,-1.02,-3.234,-3.779
-5.912,4.259,-4.745,-0.493,-1.227,-5.011
-8.103,-0.448,-4.726,0.326,-0.232,-5.082
-13.955,-6.666,-7.164,0.526,0.387,-3.589
-17.213,-7.647,-10.993,0.555,0.454,-1.392
-24.095,-7.412,-11.814,0.238,0.731,1.611
-24.286,-8.058,-8.259,-0.793,1.803,3.64
-20.597,-6.721,-4.182,-1.476,2.828,3.115
-18.106,-11.256,-0.116,-1.23,3.512,1.981
-12.118,-13.2,8.375,-1.212,3.406,1.245
-4.076,-14.989,10.552,-0.889,1.512,0.502
-0.794,-12.418,11.914,-0.357,1.512,-1.345
-4.517,-18.013,10.043,-0.465,-0.352,-0.0
-2.836,-12.241,12.291,-0.746,-1.457,1.561
-2.527,-10.914,6.834,0.197,-1.036,1.538
-2.47,-9.078,3.032,0.633,-1.493,0.318
-4.887,-10.342,-3.694,1.219,-4.384,0.236
-6.609,-5.913,-7.101,1.602,-5.402,-0.806
-8.684,-3.601,-11.266,1.745,-5.163,-2.343
-12.158,-2.572,-12.932,1.37,-4.71,-3.184
-18.435,-2.603,-16.351,0.854,-4.332,-2.606
-27.78,0.506,-16.265,0.525,-3.299,-0.286
-29.891,3.06,-14.416,0.21,-0.843,2.264
-26.977,3.206,-10.08,-0.361,1.448,3.473
-25.141,-4.53,-1.545,-0.291,3.678,2.888
-21.041,-11.338,5.959,0.105,5.809,2.69
-9.461,-17.992,10.11,-0.144,4.918,2.067
-5.008,-20.958,9.809,0.154,1.991,0.869
-5.433,-20.579,6.186,0.91,-0.962,0.287
-5.942,-13.433,-1.375,1.167,-3.651,0.665
-5.981,-7.293,-5.774,1.195,-5.72,-0.254
-10.38,-3.547,-10.223,1.649,-5.199,-1.829
-13.444,-1.806,-13.644,1.781,-3.946,-2.683
-19.513,-1.514,-18.203,1.29,-3.486,-1.962
-28.761,-0.222,-19.071,0.556,-2.411,0.51
-29.716,-0.612,-16.423,-0.377,0.124,3.013
-24.093,-0.086,-9.932,-0.976,2.352,3.615
-24.348,-11.393,-5.743,-1.166,3.763,3.362
-18.686,-17.573,5.837,-0.777,5.09,3.409
-7.89,-20.182,8.446,-0.36,3.816,2.473
-4.037,-19.399,7.19,0.559,1.205,0.91
-6.456,-18.365,2.03,1.152,-1.832,0.473
-5.505,-7.503,0.021,1.123,-3.985,0.093
-7.68,-2.155,-7.457,0.871,-5.157,-1.429
-10.497,-0.361,-9.195,0.758,-4.534,-2.968
-15.349,-6.996,-4.315,0.116,-2.466,-3.286
-15.609,-12.633,0.49,-0.691,-2.898,-1.344
-14.604,-13.777,1.56,-0.372,-3.549,0.516
-10.826,-12.698,0.35,0.237,-3.918,1.32
-9.01,-13.375,-0.694,0.493,-4.664,1.124
-7.969,-7.331,-8.912,0.76,-6.602,0.29
-10.47,-2.951,-14.789,1.145,-5.533,-1.6
-11.034,-0.846,-16.925,0.74,-4.594,-2.599
-18.216,-1.891,-18.082,-0.143,-4.592,-1.737
-23.82,1.738,-19.093,-0.664,-3.423,0.827
-22.136,3.337,-14.36,-1.335,-0.784,3.465
-21.025,1.347,-15.807,-1.018,-0.802,3.105
-22.773,-7.937,-8.573,-1.417,1.503,3.466
-22.524,-7.456,-9.872,-0.905,1.819,2.944
-23.231,-9.162,-10.91,-1.1,1.27,2.493
-27.716,-10.284,-12.417,-0.802,1.064,2.453
-27.386,-9.824,-7.264,-1.66,3.481,3.668
-23.717,-6.216,-7.84,-1.321,3.73,2.398
-21.118,-13.708,-1.174,-1.106,5.303,2.151
-14.545,-18.297,6.101,-0.622,5.862,1.953
-7.425,-19.375,6.808,-0.097,3.34,1.179
-5.328,-18.775,4.06,0.886,0.254,1.222
-4.068,-13.955,-1.531,1.299,-3.052,1.952
-2.984,-7.419,-5.369,1.229,-4.978,1.359
-4.927,-5.08,-11.608,1.492,-5.465,-0.219
-8.487,-3.103,-15.729,1.578,-5.071,-1.011
-14.449,-2.257,-20.434,1.066,-4.159,-0.897
-23.016,-0.228,-21.552,0.194,-2.828,0.937
-24.359,0.14,-18.943,-0.746,-0.085,3.135
-21.801,0.397,-12.852,-1.75,2.233,3.941
-18.935,-4.146,-5.32,-2.003,4.183,2.956
-16.562,-10.217,3.57,-1.181,6.097,2.618
-7.051,-16.186,8.792,-0.401,6.011,1.931
-3.868,-17.276,8.199,0.285,2.925,1.01
-3.128,-16.782,5.288,1.33,-0.29,0.937
-3.822,-13.216,0.057,1.913,-3.256,1.361
-4.7,-8.994,-3.819,1.612,-6.109,0.425
-9.986,-6.025,-9.323,1.855,-5.956,-1.321
-14.202,-4.882,-12.984,1.861,-5.103,-2.184
-4.626,1.688,-8.292,1.524,-1.888,-2.736
-6.128,1.446,-6.104,1.525,0.831,-3.537
-3.036,-12.259,-9.751,2.269,3.945,-3.17
1.57,-15.145,-4.903,0.655,2.558,-1.621
4.855,-14.845,-0.095,-0.288,1.298,-0.443
-3.936,-18.947,-6.527,-0.695,-1.577,0.372
0.427,-16.346,-6.861,-1.864,-3.495,1.514
1.476,0.451,-1.992,-3.31,-6.385,1.3
1.144,6.776,-4.498,-2.283,-5.461,-0.41
-1.917,12.756,-6.911,-1.39,-5.09,-2.49
-11.761,15.181,-5.657,-0.393,-2.852,-2.26
-13.999,13.779,-6.836,-0.077,-3.176,-1.233
-18.025,4.893,-5.756,-0.216,-1.235,0.024
-17.043,-1.029,-4.007,-1.235,-2.238,2.286
-12.638,-7.023,-2.816,-1.83,-2.577,4.364
-2.139,-8.304,-3.855,-2.864,-5.0,3.956
-0.713,-5.616,-3.303,-3.087,-5.293,2.57
1.02,2.725,-4.868,-3.111,-7.832,1.305
-1.106,6.98,-5.845,-2.17,-6.058,-0.875
-2.737,6.64,-5.482,-1.893,-4.782,-2.803
-14.663,9.286,-3.835,-1.556,-4.956,-3.075
-22.974,12.081,-4.003,-0.554,-2.89,-1.344
-22.301,13.775,-2.68,0.24,0.599,0.585
-16.482,16.129,-1.515,0.766,2.2,0.831
-20.478,9.391,2.055,2.481,4.383,0.215
-9.706,-2.85,8.641,2.353,7.618,-0.12
-2.887,-12.201,16.923,0.333,5.224,-0.21
-6.364,-15.177,16.068,-0.181,1.731,-0.539
-10.917,-14.848,12.904,-0.706,-0.605,0.28
-3.634,-3.488,7.953,-2.471,-2.621,1.39
-4.286,4.663,1.234,-2.712,-6.114,0.922
-7.167,9.768,-5.713,-1.525,-5.326,-1.116
-5.828,11.511,-7.245,-1.113,-3.923,-2.662
-11.079,11.568,-4.335,-0.584,-3.3,-2.873
-24.314,10.685,-3.536,0.12,-2.328,-1.354
-27.124,10.222,-1.224,0.627,1.165,0.998
-21.17,10.711,0.833,1.181,3.87,1.315
-24.087,1.143,6.234,1.886,5.96,0.601
-20.629,-8.55,8.073,1.602,6.342,1.457
-8.22,-14.843,8.965,0.601,3.894,1.503
-5.219,-14.942,6.346,0.282,0.401,0.688
-7.074,-13.617,0.606,-0.069,-2.107,1.048
0.814,-3.702,-4.651,-1.132,-5.319,1.424
-1.629,3.071,-8.138,-1.598,-7.482,0.047
-4.756,7.246,-8.599,-1.181,-6.03,-1.575
-7.55,7.752,-8.744,-0.773,-4.614,-2.664
-17.545,7.362,-7.068,-0.112,-4.433,-2.13
-26.28,9.601,-7.661,0.732,-2.047,-0.007
-24.174,10.311,-4.666,1.277,1.445,1.618
-21.568,8.698,-1.563,1.056,3.486,1.41
-22.54,-2.397,2.905,1.804,5.562,0.061
-14.669,-9.125,7.44,0.803,4.785,0.696
-8.963,-13.944,10.002,0.531,2.119,0.552
-7.994,-15.308,6.9,1.088,-1.136,-0.171
-8.316,-14.23,2.119,1.767,-4.167,0.013
-8.794,-5.362,-3.177,0.502,-7.66,0.852
-13.371,-0.345,-7.382,0.555,-7.307,-0.618
-15.331,2.492,-9.308,0.143,-5.775,-2.0
-16.824,3.851,-8.274,-0.058,-4.16,-2.356
-20.438,2.628,-6.258,0.314,-2.716,-1.785
-25.088,2.385,-6.954,1.255,-0.86,-0.225
-24.268,1.996,-8.121,1.825,1.884,1.5
-21.504,1.952,-4.744,1.278,3.845,2.333
-17.33,1.495,-0.585,0.544,5.484,0.645
-19.495,-13.602,-1.307,0.939,7.072,-0.922
-11.803,-18.105,4.638,0.162,6.396,-0.393
-8.02,-20.968,6.408,0.189,2.911,-0.266
-7.655,-22.19,1.148,1.118,0.139,-0.369
-7.228,-21.686,-4.412,1.59,-2.808,0.953
-6.628,-7.709,-4.802,0.027,-6.301,1.726
-13.297,-0.388,-9.82,-0.184,-6.747,0.203
-15.783,3.135,-11.434,-0.29,-5.191,-1.179
-25.208,-12.917,-8.888,-1.136,-3.239,-3.289
-35.033,-18.771,-5.342,-1.621,-3.785,-1.119
-28.142,-18.507,-4.116,-0.522,-2.202,0.963
-16.217,-18.941,-4.389,0.287,-2.484,1.841
-12.226,-19.823,-4.509,0.3,-4.041,1.381
-7.918,-3.932,-5.67,0.429,-6.712,2.42
-4.089,1.414,-9.316,0.712,-5.503,0.332
-10.695,3.714,-11.772,0.523,-6.232,-0.805
-20.363,2.279,-11.995,0.806,-4.485,-1.014
-27.668,2.889,-13.276,0.969,-1.371,0.073
-22.752,5.458,-10.55,0.997,2.122,0.427
-16.2,4.565,-7.283,1.185,4.405,-0.977
-15.084,-11.939,2.991,-0.575,4.502,-2.161
-17.905,-13.022,6.448,-1.399,2.303,-0.921
-7.705,-14.167,9.181,-0.858,0.933,-0.62
-3.36,-15.1,5.615,-0.166,-2.56,-0.349
-10.46,-14.466,1.582,-0.785,-6.052,0.615
-11.254,2.166,-7.232,0.172,-6.2,1.032
-5.727,4.109,-9.716,0.317,-4.805,-0.835
-11.919,4.841,-10.228,-0.189,-5.334,-1.667
-19.434,3.745,-8.926,-0.208,-3.407,-1.514
-20.208,4.11,-10.152,0.482,-1.548,-0.421
-20.272,5.265,-12.008,0.83,0.949,0.463
-18.971,7.607,-10.897,0.22,3.046,0.661
-14.614,5.767,-8.318,-0.257,5.324,-1.117
-18.004,-5.657,5.76,-1.692,3.397,-0.709
-16.271,-11.313,8.53,-1.127,3.17,0.481
-7.64,-13.038,9.784,-0.101,0.604,0.936
-5.979,-16.701,6.714,1.214,-2.888,0.604
-11.704,-16.407,1.86,1.567,-6.187,1.625
-8.836,-6.119,-13.629,2.797,-4.676,0.49
-8.256,-1.455,-14.885,2.188,-4.638,-1.006
-15.04,-1.208,-14.733,0.771,-1.878,-1.325
-11.054,4.544,-8.068,0.048,1.614,-2.57
-16.415,-6.317,-6.918,0.604,4.913,-3.591
-19.993,-11.237,1.191,-0.097,3.524,-1.563
-17.295,-14.109,3.413,-0.349,3.063,0.18
-9.794,-14.023,3.88,0.121,0.036,0.755
-12.233,-18.565,-2.651,-0.072,-3.457,2.276
-5.784,-7.29,-4.043,-1.277,-6.66,3.206
-1.72,-1.527,-12.702,-1.26,-5.863,1.247
-4.098,2.839,-16.381,-1.47,-5.73,-0.461
-11.436,2.771,-18.608,-1.602,-4.488,-1.054
-16.459,2.753,-19.31,-1.576,-2.809,-0.224
-18.322,4.916,-17.813,-1.587,-0.211,1.388
-12.271,9.23,-12.115,-1.205,2.361,1.179
-14.73,-1.91,-9.49,-0.375,4.511,-0.606
-15.438,-10.683,1.943,-0.982,3.999,0.119
-14.393,-13.501,5.525,-0.985,3.167,0.925
-5.742,-12.339,6.108,-0.198,0.627,0.895
-6.618,-16.246,0.891,0.208,-2.865,1.109
-5.31,-6.069,-2.369,-0.398,-5.666,2.161
-3.9,1.401,-13.978,0.197,-5.721,0.422
-3.98,4.105,-16.482,0.234,-5.635,-1.159
-9.884,1.893,-16.912,0.001,-4.295,-1.724
-14.602,1.141,-17.248,-0.255,-2.471,-0.75
-16.339,1.179,-18.764,-0.528,-1.327,0.914
-18.074,3.524,-16.34,-0.895,1.027,2.295
-9.715,5.4,-12.559,-0.296,3.585,0.653
-22.582,-11.02,-8.579,-1.222,4.445,-0.422
-22.838,-15.786,0.087,-2.182,2.621,0.67
-21.84,-13.896,0.587,-1.814,1.839,-0.181
-21.619,-14.664,-1.217,-1.376,0.448,-0.487
-31.225,-17.325,-5.187,-2.258,-1.54,2.195
-21.483,0.478,-9.429,-1.361,-2.324,4.529
-18.182,8.075,-14.643,-0.5,1.168,4.117
-7.525,6.34,-7.66,-0.497,3.607,2.462
-12.615,-10.302,-0.903,-1.074,3.835,1.374
-17.234,-14.973,-0.574,-0.855,2.365,2.185
-7.587,-17.395,1.463,-0.612,1.955,1.775
-4.531,-18.266,-0.507,-0.218,-1.538,0.696
-12.465,-18.031,-5.33,-0.378,-5.03,1.353
-8.402,-1.325,-11.584,-0.124,-6.493,1.171
-3.525,5.198,-12.486,0.035,-5.402,-0.826
-12.424,7.63,-14.273,-0.015,-5.183,-1.641
-20.544,7.531,-16.778,-0.051,-3.2,-1.156
-22.75,9.222,-15.313,-0.149,0.292,0.231
-14.351,13.449,-10.477,0.108,2.917,-0.221
-18.959,0.965,-8.128,0.406,5.285,-1.717
-16.247,-6.513,-0.501,-0.418,4.001,-0.698
-12.557,-10.111,3.891,-0.453,3.232,0.097
-6.811,-12.963,4.517,-0.07,0.828,0.465
-8.335,-17.867,-0.121,0.123,-2.075,1.904
-0.301,-7.079,-0.945,-0.259,-5.568,3.212
-2.951,-1.304,-8.065,-0.022,-5.856,1.4
-7.638,2.18,-12.457,-0.108,-6.168,0.048
-16.161,3.796,-15.278,0.111,-5.279,-0.1
-22.447,4.876,-16.376,0.016,-3.249,0.684
-23.624,7.295,-14.343,-0.346,0.243,1.608
-15.021,8.814,-10.87,0.017,3.736,0.436
-16.58,-7.499,-5.595,0.961,6.328,-1.122
-7.883,-13.394,1.929,-0.163,4.735,-0.94
-7.004,-16.03,4.829,-0.336,2.208,-0.735
-4.975,-18.587,3.951,0.266,-0.468,-0.655
-7.599,-18.951,1.093,0.392,-3.256,0.954
-0.66,-4.003,-2.054,-0.722,-6.749,1.723
-8.655,1.25,-6.566,-0.504,-7.133,-0.101
-11.957,5.208,-8.481,-0.316,-5.909,-1.651
-21.465,7.671,-10.291,0.104,-5.486,-1.424
-27.993,8.071,-11.259,0.302,-3.417,0.127
-26.925,9.95,-8.617,0.101,0.076,1.75
-16.983,8.498,-8.751,0.355,3.568,1.212
-18.214,-7.8,-4.213,0.936,5.744,0.523
-9.439,-16.783,1.25,0.015,5.089,1.156
-5.117,-19.615,3.788,-0.193,2.745,0.819
-4.673,-20.739,2.222,0.446,-0.29,0.166
-9.306,-19.621,1.628,0.947,-3.301,0.875
-5.857,-6.787,-2.577,0.179,-6.793,0.931
-13.447,1.321,-8.03,0.459,-6.338,-1.04
-12.747,-5.336,-4.339,-0.32,-5.102,-1.61
-17.326,-8.157,-3.044,-1.419,-5.515,-0.511
-15.822,-8.216,-1.38,-1.691,-5.347,1.017
-10.689,-5.889,-0.429,-1.267,-4.812,2.088
-3.861,-7.008,0.68,-0.974,-5.46,2.106
-7.212,0.243,-5.709,-0.437,-6.474,0.827
-10.379,2.889,-9.873,0.125,-6.165,-0.628
-21.096,5.438,-12.663,0.368,-5.194,-0.364
-26.59,5.367,-14.125,0.351,-2.698,0.902
-21.848,10.521,-9.413,0.224,0.401,1.017
-18.143,10.195,-3.884,0.79,3.243,0.111
-15.728,-3.71,3.756,2.025,6.383,-0.351
-7.243,-9.138,8.822,0.607,4.762,-0.094
-3.919,-11.351,11.113,0.084,2.029,-0.475
-7.139,-15.914,7.19,0.017,-1.238,0.233
-8.908,-13.547,2.677,-0.645,-4.73,1.231
-12.161,0.679,-2.777,-2.156,-8.223,1.399
-19.355,8.173,-7.735,-0.468,-6.418,0.613
-21.154,11.498,-8.658,0.504,-3.889,0.768
-16.479,14.646,-6.851,0.891,-0.622,0.309
-12.041,12.698,-5.216,1.363,1.786,-0.291
-9.833,-1.054,-0.417,3.345,5.278,-1.041
0.62,-10.662,4.216,2.486,4.532,-0.627
3.043,-13.765,4.474,1.336,1.705,-0.577
-2.095,-17.352,2.11,0.741,-0.826,0.409
-2.778,-16.149,0.721,0.34,-1.977,1.947
4.541,-2.282,-4.463,-1.51,-5.359,2.731
-1.116,3.817,-10.036,-1.609,-6.418,1.182
-10.598,7.037,-14.386,-1.125,-5.067,0.603
-15.222,9.381,-16.272,-1.018,-3.131,1.236
-12.857,13.476,-12.589,-1.041,-0.895,0.742
-15.751,10.588,-8.621,-0.575,2.154,-0.125
-15.968,-3.21,-5.295,0.099,5.567,0.342
-4.933,-10.306,1.249,-0.812,4.215,0.826
-1.993,-13.467,3.657,-1.005,1.853,0.016
-5.033,-16.094,0.749,-1.065,-1.031,0.081
-4.745,-12.696,-0.866,-1.824,-4.19,0.494
-5.446,3.279,-0.968,-2.971,-7.25,-0.165
-9.573,10.141,-1.827,-2.713,-5.694,-1.464
-10.112,12.85,-0.757,-2.5,-4.456,-2.16
-16.67,13.645,-0.446,-2.111,-3.693,-1.871
-22.094,17.857,0.846,-1.265,-1.671,-0.106
-21.499,19.234,3.406,0.09,0.732,2.227
-20.687,13.67,3.119,-0.013,-0.824,3.832
-18.268,10.257,2.032,-0.065,-2.005,4.662
-11.559,8.772,0.471,-0.191,-3.13,4.733
-5.545,4.419,-4.686,-0.609,-4.849,3.274
-4.342,0.731,-9.906,-1.49,-7.446,1.112
-6.845,6.547,-13.562,-0.939,-6.563,-0.374
-15.816,8.738,-16.243,-0.633,-5.697,-0.276
-22.423,7.635,-17.38,-0.695,-3.194,0.757
-18.824,9.497,-11.55,-0.834,-0.004,1.094
-14.92,6.78,-6.566,-0.441,3.33,0.002
-12.029,-11.076,-5.192,0.131,5.939,-0.685
-7.542,-15.378,0.026,-1.14,4.48,-0.305
-2.982,-16.471,3.355,-1.523,2.721,-0.698
-4.973,-17.861,0.607,-1.33,0.169,-0.337
-5.947,-12.82,-1.655,-1.438,-3.15,0.785
-6.18,3.447,-1.085,-2.088,-6.138,0.646
-4.51,7.697,-3.452,-1.317,-5.478,-1.44
-7.159,11.168,-4.947,-0.976,-5.796,-2.953
-18.672,15.488,-5.931,-0.498,-5.593,-2.763
-24.626,15.569,-6.24,0.233,-2.574,-0.94
-23.117,16.384,-3.062,0.57,0.414,0.781
-20.809,15.553,-0.346,1.033,3.246,0.601
-24.936,1.206,2.743,2.861,6.067,0.448
-14.88,-10.207,5.34,1.482,5.452,1.036
-10.372,-14.734,5.896,0.035,2.375,0.998
-7.857,-15.757,3.618,-0.453,-0.708,0.854
-5.705,-12.077,-0.329,-0.954,-3.902,1.598
1.598,0.752,-3.681,-3.207,-7.394,1.527
-1.842,7.264,-6.008,-2.833,-7.923,0.118
-6.337,13.993,-8.592,-1.798,-7.084,-1.293
-16.409,18.759,-9.879,-0.905,-5.296,-1.13
-19.055,17.45,-8.113,-0.301,-2.102,-0.044
-15.036,17.898,-7.563,0.42,1.391,0.005
-15.084,12.779,-2.567,2.488,4.883,-1.218
-7.835,-0.556,2.582,1.531,5.371,-1.23
-4.851,-9.539,6.563,-0.204,3.173,-0.499
-4.306,-11.853,7.131,-0.716,0.318,-0.286
-5.748,-10.431,6.679,-1.052,-2.632,0.741
-1.161,-4.308,1.356,-2.709,-5.891,1.904
-4.139,4.787,-2.564,-2.292,-6.795,1.1
-1.523,9.048,-5.522,-1.275,-5.956,-1.329
-6.433,10.905,-7.179,-1.043,-5.641,-2.76
-18.419,10.633,-6.976,-0.519,-4.489,-2.501
-25.885,10.508,-6.172,-0.034,-1.75,-0.579
-25.521,10.457,-2.97,0.329,1.205,1.527
-17.359,12.551,0.152,0.919,3.859,1.219
-19.226,2.834,5.922,2.707,6.397,0.283
-11.967,-2.98,7.657,2.561,8.196,-1.596
-6.322,-18.765,9.785,3.336,8.716,-3.427
-5.274,-23.744,9.817,2.183,5.224,-3.664
-12.274,-27.869,7.891,1.05,2.235,-1.54
-3.396,-19.299,3.323,-1.05,-0.713,0.184
-0.392,-13.313,1.527,-1.601,-4.086,1.276
1.069,1.793,-0.774,-2.994,-7.312,0.893
-0.803,7.249,-3.806,-2.28,-7.312,-0.92
-8.025,12.904,-3.633,-1.489,-7.144,-2.197
-17.444,16.28,-5.247,-0.401,-5.886,-1.884
-21.362,15.644,-4.935,0.356,-2.512,-0.456
-17.506,17.776,-2.006,0.758,0.714,0.132
-11.065,18.305,1.028,1.377,4.207,0.753
-2.192,16.068,-0.957,1.289,3.534,0.396
-0.364,13.991,-2.004,0.242,1.731,-0.961
-6.142,14.535,-4.493,0.063,0.094,-1.795
-15.535,13.17,-9.737,0.258,-1.686,-0.456
-23.31,12.457,-13.098,0.123,-2.138,0.981
-20.199,13.399,-8.88,0.093,1.354,1.369
-16.943,8.784,-5.064,0.333,4.847,0.849
-5.17,-8.688,-2.351,0.659,6.483,0.141
-3.464,-15.124,1.191,-0.173,5.054,0.245
0.093,-17.522,3.185,-0.334,3.001,0.015
-2.098,-20.084,0.671,-0.088,-0.393,0.584
-0.119,-16.522,-1.467,0.086,-3.886,1.2
-8.256,-0.392,-2.717,-0.754,-7.378,0.882
-15.423,8.429,-6.009,-0.042,-6.72,-0.218
-21.844,13.06,-9.283,0.547,-5.344,-0.124
-24.056,14.7,-10.804,0.555,-1.95,0.395
-20.338,16.049,-8.403,0.424,1.543,0.272
-18.514,12.273,-2.863,1.063,5.035,-0.191
-6.028,-2.449,1.326,0.723,6.15,-0.11
-2.534,-8.662,4.864,-0.381,3.788,0.166
-0.936,-11.336,6.537,-0.614,0.903,0.04
-4.031,-12.492,4.666,-0.563,-2.507,0.483
-2.088,-9.882,0.831,-1.215,-6.0,0.858
-10.849,1.179,-0.515,-1.501,-8.056,-0.14
-16.009,7.501,-1.834,-0.599,-6.792,-1.47
-24.663,11.863,-4.069,0.212,-5.756,-1.266
-26.682,12.137,-3.522,0.166,-2.345,-0.397
-22.843,14.364,-1.379,0.521,1.147,-0.106
-19.922,11.332,2.542,1.51,4.64,-0.258
-11.216,-4.415,3.937,0.928,4.236,0.03
-5.524,-11.021,6.998,-0.369,2.591,0.261
-4.184,-13.319,6.885,-0.56,-0.704,0.289
-6.22,-13.823,3.742,-0.94,-3.999,0.66
-3.692,-9.766,-0.368,-1.97,-7.452,0.84
-9.899,3.914,-0.863,-2.345,-8.312,0.017
-13.033,10.794,-2.351,-1.856,-6.832,-1.328
-18.609,15.33,-3.076,-1.15,-5.135,-1.66
-23.756,15.57,-1.864,-0.353,-2.828,-0.651
-26.312,15.57,-1.692,0.557,0.364,0.974
-19.34,15.761,0.41,1.476,3.856,1.669
-15.237,9.614,4.821,1.951,5.868,0.866
-7.539,-6.889,6.566,1.644,5.719,0.416
-5.9,-12.282,9.459,0.81,3.215,0.906
-4.869,-14.934,8.753,0.383,0.274,0.951
-5.834,-14.561,5.145,-0.062,-2.082,0.955
-3.693,-10.922,1.316,-0.804,-5.33,1.393
-8.002,1.551,1.206,-1.519,-7.075,0.348
-10.903,5.23,-0.71,-1.7,-5.958,-1.999
-13.741,6.593,0.16,-1.554,-4.323,-3.413
-22.166,5.924,0.572,-0.964,-3.99,-3.139
-30.909,5.591,-0.112,-0.079,-1.593,-1.342
-32.208,6.029,-0.847,0.643,1.899,1.104
-26.705,5.72,0.565,0.964,4.275,2.644
-21.801,3.526,5.735,1.044,5.842,2.035
-14.134,-12.328,6.263,1.272,7.381,1.474
-8.54,-17.228,7.953,0.549,4.762,1.6
-5.759,-17.135,7.172,0.323,1.279,1.235
-4.251,-14.757,2.161,0.359,-1.34,0.853
-3.34,-10.572,-5.394,-0.319,-4.6,1.442
-7.12,4.885,-6.363,-1.562,-7.387,1.154
-6.054,10.414,-9.635,-1.836,-7.094,-0.754
-9.515,11.82,-10.151,-2.224,-6.416,-1.838
-13.708,11.147,-8.916,-2.083,-5.857,-1.827
-18.271,11.236,-9.212,-1.27,-4.412,-0.904
-18.265,13.73,-10.619,-0.313,-1.42,0.127
-14.842,15.524,-8.301,0.195,1.756,0.771
-8.846,13.49,-7.804,0.794,3.987,-0.067
-11.581,4.523,-3.789,1.606,6.047,-1.422
-6.641,-5.064,2.603,0.618,5.31,-1.083
-4.889,-9.619,6.633,-0.315,2.097,-0.453
-6.897,-12.7,5.927,-0.405,-1.344,-0.191
-9.225,-9.218,5.181,-0.798,-3.768,0.31
-5.414,-1.474,2.241,-2.116,-7.1,0.644
-11.714,6.187,-0.876,-1.991,-7.476,-0.575
-15.617,11.03,-1.426,-1.314,-6.128,-1.846
-22.644,13.573,-1.52,-0.594,-4.529,-1.445
-26.359,12.252,-0.133,0.352,-1.863,0.058
-22.315,13.512,1.216,1.054,1.469,1.282
-14.797,11.844,1.206,1.742,4.296,0.897
-12.174,3.049,5.132,2.789,6.44,-0.332
-5.495,-6.619,7.689,2.029,6.353,-0.669
-2.649,-11.044,8.693,0.722,3.192,-0.578
-5.91,-12.67,7.581,0.351,-0.3,-0.387
-8.978,-9.357,6.485,-0.261,-3.011,0.373
-6.83,-2.464,1.654,-1.847,-5.651,0.966
-13.048,6.236,0.322,-2.257,-6.87,0.137
-16.923,12.352,-0.617,-1.389,-4.725,-0.803
-20.773,15.039,-0.998,-0.623,-3.071,-0.528
-23.262,14.443,-1.048,0.468,-1.191,0.607
-22.021,13.511,-0.549,1.153,1.449,2.146
-11.641,13.108,0.413,1.783,4.598,2.004
-8.424,7.354,1.823,1.806,5.945,0.588
-5.31,-4.822,3.474,2.029,7.784,-0.507
-0.678,-10.702,5.279,0.965,5.522,-0.528
-2.562,-12.336,5.089,0.673,2.03,-0.514
-6.01,-14.429,2.613,0.592,-0.894,0.215
-3.546,-11.173,0.784,0.039,-4.387,0.658
-8.862,-1.114,2.76,-1.556,-7.879,0.226
-19.901,8.6,3.961,-0.717,-7.39,-0.046
-24.962,11.332,1.526,0.461,-5.158,0.298
-26.428,11.665,3.237,1.282,-2.234,1.627
-18.645,15.122,6.14,1.807,1.258,2.495
-12.074,15.029,3.284,2.921,3.733,2.287
-4.732,4.62,3.813,4.247,6.438,0.292
4.052,-5.372,7.123,2.962,6.535,-0.745
4.928,-8.489,7.597,0.858,3.042,-1.189
-5.342,-13.146,6.38,-0.349,-0.451,-0.038
-3.831,-10.913,4.705,-1.448,-2.528,1.355
-0.073,-0.553,0.901,-3.969,-4.777,2.699
-1.373,10.435,-1.318,-4.198,-6.276,2.558
-1.606,15.923,-4.017,-2.85,-4.596,1.598
-0.25,19.615,-7.484,-1.602,-2.66,0.361
-1.906,21.241,-8.387,-0.615,-0.374,-0.038
-1.224,20.013,-6.926,0.29,1.549,-0.477
-1.937,19.171,-4.213,1.052,3.829,-1.371
-4.353,12.84,0.143,2.561,5.641,-2.671
1.181,1.301,4.567,2.263,7.198,-2.997
2.993,-6.298,8.994,0.947,4.514,-2.205
-2.018,-11.31,8.629,0.426,1.348,-0.487
-0.509,-10.242,3.399,-0.064,-0.379,0.949
3.504,-2.078,-2.721,-2.19,-2.404,2.454
0.156,7.49,-7.028,-2.698,-3.93,2.88
0.847,10.459,-9.283,-1.995,-2.289,2.078
4.127,12.698,-9.205,-1.77,-1.622,0.831
-0.307,13.848,-6.998,-1.529,-1.784,0.16
-2.683,14.988,-6.777,-0.753,-0.455,-0.057
-0.093,18.675,-4.352,-0.03,1.071,-0.415
-0.613,18.536,-5.448,0.78,2.133,-1.779
-6.154,6.911,-6.2,2.69,4.959,-3.117
-1.224,-4.993,-2.852,1.67,5.368,-2.319
-1.911,-12.173,0.815,0.321,2.571,-0.909
-6.394,-17.012,-1.168,-0.194,-0.358,0.309
-5.488,-13.43,-3.551,-1.274,-1.781,2.139
2.792,-0.943,-4.844,-3.977,-4.043,3.58
1.371,8.527,-7.125,-3.688,-4.406,3.188
4.463,12.33,-7.576,-2.706,-2.782,1.964
6.306,14.763,-7.82,-2.16,-1.666,1.053
5.454,15.327,-6.896,-1.309,-0.506,0.381
4.848,16.633,-5.249,0.102,0.93,-0.37
5.172,16.616,-5.416,0.272,-0.023,-0.836
2.789,16.101,-5.274,-0.193,-1.647,-1.507
-4.677,15.963,-2.77,-0.697,-2.514,-1.663
-10.362,15.677,-1.295,-0.555,-3.458,-1.264
-17.136,14.803,-2.904,-0.392,-3.429,-0.197
-18.288,14.834,-3.543,0.505,-0.25,0.444
-12.107,16.383,-3.412,1.249,3.242,0.433
-4.472,13.549,-3.253,1.789,5.479,-0.89
-4.644,2.524,-1.691,3.028,7.476,-2.532
1.529,-4.76,1.61,1.779,5.235,-2.48
-1.351,-8.683,2.754,0.609,1.742,-1.805
-5.491,-12.489,1.827,0.109,-1.652,-0.557
-6.877,-10.57,1.072,-0.567,-4.701,1.102
-4.206,-1.627,1.305,-2.657,-8.194,2.294
-10.198,5.627,0.536,-2.494,-8.141,1.531
-11.721,11.786,-0.036,-1.634,-6.816,0.581
-16.593,16.445,-1.228,-0.721,-4.843,0.218
-18.977,17.149,-3.129,0.206,-1.693,0.453
-15.049,18.434,-4.94,0.933,1.8,0.64
-7.281,17.517,-5.699,1.605,4.785,-0.133
-4.736,11.793,-2.06,2.363,6.952,-1.733
2.241,-2.771,-1.495,1.852,7.849,-2.314
1.516,-8.248,2.192,0.225,4.699,-1.312
-2.228,-11.523,4.145,-0.195,1.206,-0.17
-5.547,-11.641,2.644,-0.619,-1.472,1.184
-2.684,-7.074,-1.877,-1.993,-4.364,2.424
-6.565,6.103,-2.19,-2.641,-6.894,2.175
-8.379,13.043,-4.735,-1.807,-6.024,0.527
-11.241,17.0,-6.317,-1.227,-4.112,-0.304
-14.11,17.366,-5.666,-0.554,-2.517,-0.165
-14.256,16.395,-5.013,0.268,0.374,0.275
-8.46,16.922,-3.423,1.079,3.43,-0.039
-3.618,12.287,-2.755,1.722,5.81,-1.218
-3.569,1.585,-1.253,2.736,7.39,-2.533
3.502,-6.158,0.662,1.35,4.981,-2.462
-0.684,-9.725,2.98,0.176,1.488,-1.324
-5.097,-12.786,2.488,-0.367,-1.958,0.147
-5.278,-9.262,2.031,-1.219,-5.208,1.605
-1.83,-0.312,1.336,-3.161,-8.586,2.318
-8.623,6.57,1.308,-2.816,-8.225,1.404
-8.897,10.403,0.905,-2.321,-7.243,-0.118
-13.093,14.073,2.09,-1.804,-5.609,-0.89
-18.521,14.225,3.238,-0.752,-3.526,-0.638
-20.629,14.714,2.602,0.466,-0.498,0.275
-17.831,15.283,0.769,1.35,2.635,1.015
-8.477,15.281,0.146,2.034,5.145,0.109
-10.2,8.736,2.901,2.917,6.957,-1.468
-1.791,-2.816,4.771,1.707,6.119,-1.245
-2.166,-6.951,5.547,0.163,2.976,-0.452
-2.266,-8.739,5.966,-0.491,-0.065,0.056
-6.228,-8.258,3.944,-1.264,-2.786,1.455
0.447,-1.966,-1.066,-2.894,-5.741,2.826
-4.078,8.455,-4.644,-2.828,-6.47,1.805
-2.574,11.713,-4.837,-2.194,-5.506,0.063
-0.995,13.859,-6.204,-2.4,-5.187,-0.462
-0.614,12.973,-5.821,-2.558,-5.585,-0.827
-2.282,11.141,-5.056,-2.645,-5.824,-0.857
-2.228,10.453,-4.007,-2.484,-5.499,-0.707
-2.244,10.754,-4.512,-2.35,-5.371,-0.643
-8.659,11.976,-2.359,-1.666,-4.568,-0.946
-15.163,13.47,-2.8,-0.67,-2.217,-0.186
-12.819,15.306,-2.244,-0.07,0.976,0.44
-7.691,15.599,-2.62,0.319,3.372,-0.232
-8.453,12.072,0.536,1.418,5.772,-1.678
-2.119,1.177,3.113,1.907,7.691,-2.029
0.153,-5.264,6.013,0.116,4.967,-1.516
-1.966,-9.486,6.753,-0.577,2.054,-0.658
-9.233,-7.314,8.622,-0.772,0.58,0.028
-10.532,-1.956,6.87,-1.48,-0.429,2.068
-14.195,8.236,2.567,-1.76,-1.057,3.133
-7.077,14.74,2.457,-0.037,2.435,1.571
-6.858,14.272,3.099,1.145,4.983,-1.24
-4.269,-1.621,2.404,1.697,6.713,-1.141
-0.894,-9.761,1.858,0.506,4.229,-0.034
0.56,-12.454,3.669,-0.119,2.023,-0.02
-3.446,-13.961,1.819,-0.549,-0.605,0.33
-1.978,-8.731,-1.23,-1.103,-2.691,1.279
-1.4,4.52,-2.98,-1.663,-6.184,0.599
-3.911,9.59,-3.625,-1.052,-5.427,-1.571
-6.595,11.295,-4.238,-0.722,-4.721,-2.873
-12.823,11.388,-3.632,-0.375,-4.299,-2.886
-19.254,10.134,-1.749,0.236,-2.768,-1.453
-21.728,11.751,-2.616,0.539,0.006,0.638
-17.871,12.942,-1.702,0.622,2.742,1.704
-13.368,10.04,-0.9,0.548,4.818,1.044
-12.257,-6.685,-1.06,0.835,6.576,0.328
-6.247,-15.508,0.499,-0.139,4.736,0.797
-4.455,-18.479,2.797,-0.528,2.373,0.582
-4.112,-16.919,1.609,-0.382,-0.146,0.342
-5.414,-13.599,-0.168,-0.73,-2.792,0.895
-2.987,2.776,-1.071,-1.488,-4.598,1.072
-5.898,11.002,-3.996,-1.178,-3.957,-0.619
-6.631,13.808,-6.166,-0.798,-2.783,-1.732
-9.582,13.2,-7.418,-0.512,-1.946,-1.583
-12.531,14.213,-10.154,0.03,-0.718,-0.606
-13.06,16.107,-10.734,0.195,1.163,0.382
-10.58,16.568,-9.533,0.161,3.171,0.466
-9.422,12.823,-6.26,0.09,5.078,-0.804
-9.993,-2.458,-4.747,0.266,6.76,-1.942
-4.385,-10.597,2.012,-0.236,5.207,-1.125
-4.283,-16.311,3.296,-0.155,2.528,-0.185
-3.606,-18.449,2.29,0.192,0.47,0.72
-1.832,-14.746,-0.901,0.008,-2.827,1.796
-0.602,-1.173,-1.755,-0.844,-6.127,1.95
-6.693,4.437,-5.559,-0.921,-6.271,-0.068
-8.941,10.38,-7.301,-0.856,-5.254,-2.067
-16.009,12.737,-7.623,-0.732,-4.595,-2.463
-22.59,13.689,-6.671,-0.239,-2.943,-1.187
-24.316,15.283,-5.371,0.766,-0.502,0.668
-22.612,13.277,-2.16,2.06,2.666,-0.175
-19.398,-0.925,-3.239,2.803,4.7,-0.341
-15.689,-8.138,-2.208,1.554,2.719,0.619
-9.031,-15.12,-1.668,0.445,2.137,0.8
-4.484,-18.589,-2.523,-0.639,-0.337,0.593
-1.597,-15.841,-6.026,-1.773,-3.816,2.472
-0.43,-4.141,-3.314,-2.987,-7.309,2.884
-1.054,2.611,-2.725,-2.557,-7.309,1.159
-7.171,11.43,-2.3,-1.588,-8.035,-0.295
-14.795,13.713,-3.605,-0.433,-6.414,-0.901
-19.966,12.832,-4.236,0.412,-3.127,-0.49
-21.158,12.909,-5.862,0.925,0.186,0.215
-20.082,12.17,-7.265,1.197,3.583,0.706
-15.099,7.953,-5.483,0.575,6.536,-0.397
-12.78,-3.103,-2.093,0.281,8.248,-2.335
-13.114,-7.26,1.426,-0.076,5.823,-1.521
-10.609,-10.025,2.952,0.058,6.002,-3.345
-8.762,-21.738,3.436,1.556,6.098,-4.723
-9.306,-27.129,2.842,1.148,2.713,-2.785
-7.638,-20.207,2.014,0.306,-0.178,0.155
-2.234,-17.996,0.348,-0.141,-0.501,-0.298
-2.466,-16.448,0.424,-0.517,-3.792,1.643
-2.55,-4.401,-0.129,-2.084,-7.201,2.884
-3.938,1.205,-1.754,-1.798,-7.192,1.811
-5.566,4.914,-2.378,-1.777,-7.195,-0.018
-10.265,7.892,-2.417,-1.794,-6.539,-1.33
-14.852,10.185,-2.828,-1.518,-5.453,-1.956
-19.519,10.471,-1.899,-0.954,-3.478,-1.492
-20.611,11.037,-1.886,-0.033,-1.276,-0.467
-20.081,12.252,-2.647,0.861,0.302,0.544
-19.591,12.412,-2.89,1.281,2.471,1.22
-14.504,12.343,0.201,1.214,4.676,1.041
-10.831,8.492,2.482,1.039,6.11,-0.872
-3.865,-8.952,1.7,1.187,6.553,-1.987
-4.745,-15.663,2.525,0.142,4.378,-0.917
-0.65,-19.6,2.137,-0.152,2.192,-0.023
-0.637,-21.788,-1.019,-0.359,-0.752,1.073
1.47,-18.24,-4.615,-0.504,-3.757,2.912
-2.229,-2.072,-4.895,-1.242,-6.471,2.93
-4.017,1.117,-5.546,-1.123,-6.189,0.785
-9.831,3.149,-5.901,-1.303,-5.697,-0.423
-14.842,3.735,-5.166,-1.454,-5.161,-0.613
-19.775,2.544,-4.023,-1.445,-3.126,0.127
-20.927,2.661,-2.966,-1.176,-0.509,1.531
-16.189,5.553,-3.539,-0.498,1.491,2.609
-10.789,8.474,-2.878,-0.088,3.3,2.354
-2.91,10.584,-1.602,0.564,5.707,0.302
-2.097,7.257,0.784,1.628,6.677,-2.307
-2.161,1.498,2.466,1.041,4.832,-2.804
-4.685,-1.588,3.73,0.485,2.638,-1.609
-4.367,-4.703,2.982,0.598,0.263,0.091
-7.609,-7.596,-1.646,0.479,-2.08,2.753
-4.433,-5.206,-7.27,-0.679,-4.801,5.456
-4.203,-0.354,-10.694,-0.482,-5.148,6.081
-0.72,0.694,-11.74,-0.296,-4.681,5.124
-2.018,0.315,-11.64,-0.676,-5.308,4.073
-4.872,-0.459,-9.13,-1.067,-5.891,3.024
-9.873,0.044,-8.682,-0.894,-5.308,1.91
-13.546,1.115,-10.582,-0.523,-2.898,0.674
-15.627,2.423,-12.312,-0.659,0.032,-0.871
-15.28,5.048,-11.867,-0.896,3.034,-2.833
-13.036,5.725,-10.925,-0.497,5.96,-4.691
-6.387,-4.161,-11.174,0.425,8.098,-6.014
-4.11,-7.956,-7.689,-0.534,5.217,-5.026
-2.397,-9.932,-4.737,-0.983,2.963,-3.258
-1.033,-12.649,-4.19,-1.324,0.291,-0.988
0.051,-11.684,-4.597,-2.276,-2.072,0.981
-0.629,-0.728,-2.856,-3.153,-4.357,2.71
-2.768,3.184,-4.496,-2.866,-3.639,1.96
-6.804,5.289,-7.916,-2.215,-3.18,1.225
-13.127,6.116,-10.793,-1.577,-1.414,0.753
-15.887,5.233,-11.587,-1.317,0.948,0.2
-13.866,5.994,-8.164,-1.541,3.233,-1.795
-10.827,3.055,-5.133,-0.305,6.007,-3.433
-8.04,-7.644,-1.67,-0.825,4.316,-3.916
-7.831,-10.127,0.223,-1.219,2.055,-2.667
-5.391,-11.02,1.772,-0.883,-0.507,-1.103
-7.074,-11.66,-2.417,-0.88,-3.168,1.354
-2.215,-6.315,-6.231,-1.832,-5.573,3.193
0.513,4.921,-7.967,-1.676,-5.395,3.316
3.545,7.672,-7.542,-1.712,-4.862,1.618
1.57,8.806,-7.433,-1.919,-4.052,0.167
-0.776,7.552,-4.845,-2.009,-3.208,-0.81
-7.867,5.301,-1.218,-1.899,-3.183,-1.107
-13.633,6.013,0.507,-1.151,-1.82,-0.703
-15.604,8.605,-1.943,-0.267,-0.136,-0.085
-10.927,12.791,-0.974,0.477,1.616,-0.276
-6.406,13.272,-1.771,1.328,3.044,-1.32
-5.383,8.694,-1.675,2.771,5.424,-2.864
0.289,-0.356,-2.352,2.166,5.348,-3.232
1.79,-5.905,0.566,0.823,2.808,-2.357
-1.57,-11.277,-0.859,0.219,0.393,-0.815
-3.691,-11.204,-0.955,-0.436,-2.142,1.337
0.467,-6.751,-3.673,-1.634,-5.111,3.218
-7.688,0.014,-2.364,-1.233,-3.913,4.567
-6.727,4.027,-4.78,-0.428,-1.893,4.212
-4.647,5.075,-4.849,-0.427,0.143,3.608
-2.513,4.522,-4.22,-0.474,1.492,2.78
-2.009,3.591,-3.896,-0.491,2.267,2.252
6.765,5.123,-6.224,-0.43,0.786,0.543
9.539,7.908,-6.767,-0.193,0.719,-0.909
10.111,13.366,-7.072,-0.046,0.402,-2.048
8.502,15.848,-7.378,0.513,1.977,-3.614
4.263,9.249,-4.817,2.266,4.171,-4.877
7.381,3.643,-0.118,1.732,4.733,-4.602
2.691,-3.903,3.33,0.7,2.78,-2.443
-0.791,-10.869,3.366,0.648,0.605,-0.736
-2.885,-10.886,2.554,-0.133,-2.193,1.256
-0.18,-1.326,0.328,-2.29,-4.763,2.989
-5.162,5.369,-3.463,-2.44,-5.435,3.249
-1.516,11.091,-3.993,-1.924,-4.068,1.563
-1.901,15.542,-3.972,-2.052,-3.606,0.49
-2.559,17.192,-3.729,-1.613,-2.385,0.058
-3.163,20.09,-2.44,-1.199,-0.894,0.378
0.131,21.324,-1.678,-0.602,1.273,0.359
2.498,20.303,-1.377,0.25,2.745,-0.759
-0.972,12.11,1.347,1.975,5.154,-2.248
5.332,3.302,7.246,1.98,6.731,-2.493
5.042,-4.778,7.329,1.002,4.318,-2.128
0.815,-10.049,8.017,0.435,1.13,-1.358
-1.671,-12.425,8.525,-0.42,-0.928,0.175
2.444,-7.39,6.72,-2.349,-3.549,1.353
