ax,ay,az,gx,gy,gz
4.98,-4.235,-7.833,-0.229,-0.115,-0.058
4.911,-4.171,-7.873,-0.223,-0.102,-0.063
4.915,-4.183,-7.856,-0.225,-0.094,-0.07
4.852,-4.186,-7.866,-0.232,-0.092,-0.076
4.853,-4.213,-7.897,-0.238,-0.081,-0.073
4.797,-4.233,-7.907,-0.238,-0.078,-0.07
4.779,-4.228,-7.877,-0.243,-0.065,-0.066
4.619,-4.082,-7.767,-0.238,-0.035,-0.061
4.906,-3.71,-7.899,-0.227,-0.058,-0.062
4.741,-3.195,-7.96,-0.213,-0.155,-0.136
4.9,-2.719,-7.829,-0.166,0.09,-0.245
5.084,-2.406,-7.44,-0.062,0.663,-0.364
6.067,-2.479,-7.207,0.135,1.714,-0.411
7.32,-3.723,-6.618,0.359,2.453,-0.278
8.454,-5.957,-7.098,0.406,2.905,0.065
9.978,-8.892,-11.253,-0.093,1.863,0.633
8.413,-12.209,-13.75,-0.521,-0.445,1.16
3.455,-15.736,-10.906,-1.561,-3.262,0.303
0.8,-10.221,-10.779,-3.013,-5.698,-1.486
-0.216,6.297,-11.49,-4.796,-7.804,-2.704
-1.414,10.721,-5.022,-3.258,-5.254,-3.061
-4.081,19.158,-0.798,-2.036,-2.737,-3.002
0.76,22.368,5.678,-0.705,0.755,-0.343
7.176,16.319,5.987,0.069,3.313,2.163
7.662,-1.474,6.564,2.035,3.392,4.441
-0.296,-6.913,4.736,1.684,-0.1,4.258
-0.817,-13.166,4.434,1.25,0.876,3.676
-0.014,-13.844,-3.11,1.042,0.876,1.927
-3.612,-12.133,-2.811,1.708,-0.009,0.894
-4.314,-9.429,-0.71,1.726,1.174,-0.567
2.546,-6.978,-0.388,1.192,2.838,-0.698
6.897,-8.518,-4.116,0.579,0.725,-0.87
6.658,-12.994,-8.024,-0.119,-2.581,-1.153
3.064,-18.639,-6.662,-1.382,-4.254,-1.533
-0.734,-19.188,-6.25,-3.366,-5.516,-2.615
2.473,-10.489,-5.208,-5.285,-7.181,-3.0
-1.868,-2.083,-3.939,-5.459,-6.295,-3.723
-0.598,5.911,-1.773,-4.026,-4.174,-2.916
-5.082,16.28,1.386,-1.716,-0.681,-1.651
6.255,14.92,7.837,0.006,2.811,1.024
7.053,6.986,5.797,1.256,4.636,2.813
11.747,-1.07,5.651,1.738,2.371,5.194
-1.924,-6.454,6.613,1.387,0.063,4.212
1.418,-12.163,5.273,0.693,0.063,3.624
-2.572,-11.254,0.775,0.775,0.063,2.03
-4.591,-10.873,3.057,1.35,-0.765,0.88
-5.478,-9.623,5.126,1.285,-0.09,-0.473
4.826,-8.17,4.652,0.643,1.386,-0.105
7.867,-10.208,-1.217,-0.172,-0.591,-0.407
4.616,-13.088,-6.715,-0.477,-3.972,-0.581
-0.73,-17.931,-5.654,-1.204,-4.969,-1.75
-2.549,-17.41,-4.335,-3.009,-5.643,-3.269
-0.101,-2.61,-1.599,-4.757,-7.119,-3.38
-3.968,2.709,1.384,-4.08,-5.991,-3.446
-8.013,13.685,2.924,-2.522,-2.966,-3.316
-4.755,19.659,9.967,-0.69,0.527,-0.875
6.767,16.381,10.185,0.665,4.019,1.645
5.332,2.547,5.2,2.534,4.16,3.049
3.539,-2.147,4.601,2.945,1.915,3.633
3.044,-10.152,6.331,2.229,2.271,3.907
4.919,-13.384,-1.334,1.38,2.271,2.59
-2.247,-10.309,-2.886,1.898,0.46,1.444
-2.781,-11.027,-0.27,1.837,1.409,0.148
2.261,-9.771,-0.287,0.995,2.739,-0.273
6.712,-9.877,-1.617,0.306,1.125,-0.508
6.412,-10.348,-5.574,-0.338,-1.135,-0.702
5.263,-14.488,-7.53,-0.796,-2.816,-0.971
2.636,-18.191,-5.083,-1.732,-3.906,-1.789
0.427,-16.877,-1.829,-3.463,-5.636,-2.719
-0.019,-1.575,-3.114,-5.113,-7.514,-2.417
-8.827,5.455,-3.515,-4.815,-8.47,-2.342
-8.895,16.762,-1.123,-2.843,-4.977,-1.496
-7.165,23.88,-0.498,-0.655,-1.485,0.581
-4.119,19.48,-3.046,1.545,2.008,3.097
-2.199,4.151,-3.598,3.529,4.414,4.21
2.959,-2.583,-4.124,4.07,5.163,5.066
-0.407,-10.389,-6.604,2.904,3.952,4.508
2.207,-13.859,-9.768,1.88,2.731,3.295
1.736,-10.224,-9.611,1.523,0.916,1.762
-0.371,-8.836,-6.225,1.324,0.629,0.345
2.191,-6.834,-2.97,0.896,1.742,-0.675
6.475,-8.453,-3.382,0.402,1.438,-0.966
8.076,-12.188,-7.572,-0.002,-0.277,-1.282
8.308,-17.388,-6.073,-0.147,-1.954,-1.696
7.032,-18.704,-4.055,-1.351,-4.073,-3.013
7.452,-11.577,1.818,-3.202,-6.212,-2.973
2.021,-4.16,-0.321,-3.162,-7.947,-2.454
-3.192,7.186,3.386,-1.342,-5.011,-1.912
-5.991,15.304,5.816,0.017,-1.518,-0.607
-3.45,13.274,6.421,1.794,1.974,2.289
0.338,4.688,-1.576,3.678,4.779,3.674
3.094,-2.723,1.187,4.183,4.695,4.445
0.477,-10.791,0.173,2.736,2.873,4.041
3.298,-14.173,-3.758,1.677,2.776,3.071
3.874,-10.824,-6.192,1.142,1.553,1.441
-0.055,-9.477,-3.667,1.191,0.34,0.077
1.161,-7.916,-2.52,0.887,2.071,-1.076
7.284,-10.084,-3.786,0.633,1.96,-1.097
9.887,-15.745,-6.86,0.512,-1.004,-1.012
9.888,-20.532,-5.148,0.56,-3.273,-1.036
7.398,-21.806,1.012,-0.714,-4.866,-2.347
2.209,-5.496,-2.945,-2.67,-6.755,-2.203
1.113,1.976,0.58,-1.695,-4.822,-2.055
-4.096,15.588,4.414,-0.654,-1.761,-1.383
-4.753,20.651,6.245,-0.255,1.731,0.345
-0.151,20.018,0.458,0.627,5.224,2.586
6.575,0.544,3.619,2.301,6.847,3.339
3.953,-6.578,1.796,1.533,3.354,3.94
0.462,-15.614,0.667,0.489,1.655,3.227
-0.754,-16.063,-3.143,0.054,1.655,1.627
-1.637,-14.121,-2.802,0.33,0.295,0.667
-3.872,-10.465,-1.4,0.392,0.002,-0.202
-2.107,-9.428,-2.054,0.044,1.419,-0.897
2.032,-12.524,-4.509,-0.311,0.393,-1.161
1.093,-17.093,-5.351,-0.686,-3.1,-1.642
-1.79,-18.881,-5.089,-1.425,-5.232,-2.619
-4.249,-13.404,-2.205,-3.173,-6.562,-3.706
-3.356,-4.263,-4.167,-3.672,-7.243,-3.972
-2.687,4.221,-2.812,-2.519,-4.663,-3.156
-2.096,14.289,0.058,-1.262,-1.17,-1.328
0.811,13.419,2.097,-0.648,2.322,1.212
7.611,6.515,-1.147,0.653,5.758,3.154
8.834,-2.982,-0.179,1.283,5.82,4.197
6.945,-9.206,-0.068,0.583,2.472,3.97
4.372,-15.565,-3.047,-0.35,1.686,2.56
3.813,-13.193,-5.413,-0.142,1.686,1.056
1.157,-11.401,-4.209,0.401,0.386,0.327
-0.402,-9.29,-1.78,0.524,1.16,-0.267
3.411,-9.705,-3.085,0.19,2.458,-0.622
7.672,-12.997,-4.731,-0.123,0.201,-0.588
5.682,-16.313,-5.305,-0.599,-3.292,-0.758
3.679,-17.829,-4.637,-1.379,-5.428,-1.403
3.694,-15.391,-3.027,-2.737,-7.0,-2.292
1.837,-4.467,-0.63,-4.376,-8.297,-2.416
-3.868,4.86,-0.693,-3.643,-5.625,-2.496
-2.278,13.709,0.536,-1.93,-2.133,-1.267
-1.476,15.668,2.197,-0.721,1.36,0.98
1.825,11.187,1.032,0.281,4.852,2.828
3.913,1.106,-0.685,1.942,5.744,3.974
5.452,-5.948,0.236,1.646,2.623,4.658
-0.025,-11.824,-1.881,0.448,1.617,3.628
-0.096,-12.758,-3.832,0.173,1.617,1.987
-2.005,-10.094,-3.401,0.479,0.624,0.791
-3.271,-7.791,-1.837,0.688,1.387,-0.387
0.504,-6.621,-2.07,0.713,3.026,-1.404
7.676,-10.531,-4.734,0.398,2.061,-1.752
10.716,-14.538,-7.087,0.095,-1.212,-1.752
8.965,-18.588,-4.67,-0.174,-3.712,-2.038
8.989,-17.186,-4.004,-1.2,-5.366,-3.194
7.392,-7.112,-1.687,-3.133,-7.006,-3.197
0.274,1.643,0.659,-2.408,-5.834,-2.758
-1.927,10.428,3.598,-1.085,-2.561,-1.837
-1.145,15.139,2.941,-0.412,0.931,0.04
1.503,10.938,1.578,0.387,4.111,2.581
1.983,0.424,-1.246,2.284,5.353,3.98
4.215,-5.704,-1.718,1.861,4.742,4.614
2.762,-10.541,-4.55,0.769,3.461,4.142
1.337,-11.813,-7.199,0.403,1.887,2.823
-1.74,-9.79,-7.324,0.53,0.67,1.587
-0.613,-10.202,-7.084,0.286,0.839,0.5
0.247,-11.655,-8.074,-0.173,-0.949,-0.442
-1.79,-15.349,-7.392,-0.832,-3.161,-1.418
-2.114,-17.411,-5.532,-2.014,-5.079,-2.435
-0.503,-12.723,-1.146,-3.783,-7.041,-3.285
-4.199,-2.393,-4.435,-4.469,-8.418,-3.07
-5.45,4.938,-0.294,-2.981,-5.22,-2.513
-2.998,11.48,2.832,-1.675,-1.727,-0.747
0.626,11.119,2.434,-0.679,1.765,1.363
1.843,5.786,-3.08,0.855,3.216,3.324
2.171,-4.488,-0.003,1.863,4.311,3.937
3.22,-9.494,-3.441,0.81,3.465,4.132
3.523,-12.009,-7.007,0.216,2.425,3.201
1.152,-9.572,-8.149,0.446,0.893,2.158
-1.358,-8.331,-6.458,0.826,1.557,1.165
1.194,-6.928,-4.542,0.783,2.513,0.461
3.944,-7.535,-4.952,0.758,1.75,-0.121
5.29,-10.803,-8.191,0.496,-0.384,-0.622
3.735,-14.216,-8.297,0.18,-2.344,-1.362
2.777,-15.538,-7.735,-0.689,-4.459,-2.592
4.688,-14.894,-5.079,-2.139,-6.545,-3.401
1.016,-5.061,-5.397,-3.691,-8.428,-3.148
-2.063,4.091,-2.637,-2.819,-5.495,-2.693
-0.571,11.136,-0.706,-1.45,-2.002,-1.204
1.143,10.854,1.319,-0.341,1.491,1.29
2.782,8.756,-2.594,0.974,4.385,3.201
5.404,-1.952,-1.791,2.658,4.4,3.954
1.265,-9.432,-1.164,2.13,2.077,3.969
-0.858,-13.113,-2.538,1.122,2.077,3.216
-0.218,-11.938,-4.029,0.806,1.684,1.822
-3.088,-10.616,-2.612,0.816,0.532,0.689
-2.856,-9.305,-2.009,0.601,2.014,-0.267
2.559,-10.061,-3.73,0.2,2.144,-0.624
3.345,-13.077,-6.825,-0.094,-0.416,-1.13
2.071,-15.941,-6.937,-0.338,-3.122,-1.785
2.263,-16.191,-5.035,-1.477,-4.865,-2.985
0.569,-9.175,0.309,-3.27,-6.362,-3.102
-3.068,-0.751,-1.35,-3.138,-6.344,-2.699
-2.967,7.063,2.151,-1.836,-3.784,-2.104
-3.226,11.998,4.428,-0.676,-0.685,-0.351
-1.544,8.949,4.002,0.625,2.807,2.08
1.766,1.354,-1.588,2.431,5.378,3.235
5.725,-6.253,1.409,2.621,5.666,3.722
5.601,-12.035,-0.74,1.663,4.111,3.766
6.246,-15.049,-4.044,0.885,2.834,2.853
4.295,-12.348,-5.769,0.698,1.417,1.679
3.147,-11.537,-4.784,0.647,0.725,0.789
3.308,-11.379,-4.915,0.331,0.845,0.055
5.024,-12.998,-5.721,-0.179,-0.042,-0.31
4.733,-15.382,-6.313,-0.567,-2.257,-0.672
3.66,-17.69,-4.137,-1.055,-4.333,-1.141
3.8,-17.448,-1.654,-2.426,-6.211,-1.893
1.993,-10.094,1.079,-4.075,-7.695,-2.032
0.461,-0.996,0.051,-4.571,-8.746,-1.503
-2.378,6.666,0.366,-3.586,-5.607,-1.346
-3.485,14.754,-1.181,-1.825,-2.114,-0.53
-3.807,15.415,1.131,0.526,1.378,1.241
0.48,6.786,0.591,2.411,4.871,2.196
3.261,-1.89,2.67,3.315,6.984,2.532
5.552,-8.213,1.521,2.733,5.092,2.908
6.441,-14.671,-0.421,1.534,3.747,2.564
6.815,-15.541,-5.347,0.562,2.597,1.396
5.065,-12.793,-6.717,0.336,1.14,0.479
4.736,-11.609,-6.784,0.132,0.81,-0.327
7.457,-12.02,-7.434,-0.277,0.249,-0.674
8.635,-14.445,-5.962,-0.493,-1.899,-0.863
7.023,-15.828,-3.769,-1.135,-4.241,-1.351
5.595,-14.334,-2.07,-2.634,-6.277,-2.006
3.611,-6.026,-2.444,-4.147,-8.06,-1.893
-1.631,2.398,-1.228,-3.49,-6.079,-1.852
-1.864,10.252,-0.602,-2.158,-2.587,-1.138
-0.221,11.543,-0.186,-0.978,0.906,0.764
2.523,9.178,-1.891,0.687,4.084,2.456
3.165,0.533,-1.29,2.371,5.755,3.063
4.136,-6.417,-1.859,1.942,5.477,3.237
4.709,-11.504,-2.935,0.799,5.38,2.653
6.725,-11.303,-6.152,0.225,4.357,1.286
6.961,-11.533,-7.247,0.098,2.618,0.487
9.678,-11.784,-9.313,-0.214,1.859,-0.041
12.905,-12.493,-8.665,-0.169,-0.53,-0.096
11.419,-13.798,-7.304,-0.333,-3.926,-0.645
8.221,-13.138,-5.162,-1.016,-6.395,-1.721
7.217,-8.669,-2.088,-2.213,-7.835,-2.893
1.043,0.609,-2.582,-2.955,-8.746,-3.137
-1.239,6.067,0.215,-2.047,-5.254,-2.72
1.967,9.665,2.473,-1.506,-1.761,-0.521
4.696,8.604,1.351,-1.074,1.731,1.854
4.205,3.545,-2.275,-0.005,3.984,3.968
6.478,-4.819,-1.094,1.179,5.713,4.705
6.323,-9.555,-4.514,0.356,4.641,4.336
5.173,-11.694,-8.201,0.145,3.493,2.751
3.222,-11.568,-8.301,0.442,1.67,1.402
2.883,-10.591,-6.68,0.572,1.374,0.257
5.374,-11.077,-5.687,0.223,1.205,-0.474
7.692,-12.31,-7.046,-0.19,-0.574,-0.76
6.828,-14.364,-6.913,-0.512,-2.919,-1.236
4.571,-15.59,-4.605,-1.295,-4.588,-2.219
3.965,-11.291,-3.408,-2.691,-6.546,-2.892
2.337,-1.891,-3.8,-3.924,-8.105,-2.655
-2.562,4.437,-1.874,-2.98,-6.26,-2.476
-3.015,11.608,-1.431,-1.442,-2.767,-1.507
-1.692,13.625,-2.048,0.301,0.725,0.807
-1.237,7.71,-3.228,2.119,4.218,2.643
-0.558,-1.96,-3.57,3.688,6.562,3.49
0.389,-7.186,-4.183,3.338,5.91,4.003
0.661,-12.461,-4.583,2.062,5.438,3.729
1.512,-12.656,-6.295,1.187,3.877,2.54
1.451,-10.88,-6.512,0.864,2.42,1.505
1.988,-10.418,-6.011,0.688,1.582,0.531
5.293,-11.783,-6.916,0.387,0.151,-0.173
4.535,-14.207,-6.583,0.191,-2.87,-0.853
2.438,-16.857,-4.255,-0.611,-4.801,-1.93
3.427,-14.401,-1.94,-2.169,-6.837,-2.962
1.408,-3.648,0.4,-3.916,-8.343,-2.513
-3.89,2.395,1.1,-3.621,-7.556,-2.124
-4.37,10.349,0.874,-2.288,-4.063,-1.617
-2.825,14.662,0.499,-0.347,-0.571,0.232
-4.32,9.777,0.206,1.906,2.922,2.182
-1.758,-2.138,-1.213,3.836,6.395,2.594
2.961,-7.022,-0.958,3.733,6.728,2.91
2.891,-12.945,-1.498,2.615,5.697,3.089
3.889,-15.127,-3.555,1.452,4.376,2.368
4.129,-13.168,-5.336,0.671,2.531,1.419
2.97,-12.015,-5.681,0.424,0.545,0.477
3.171,-12.517,-5.719,0.184,-0.125,-0.228
4.92,-14.584,-6.321,0.107,-2.57,-0.753
3.495,-17.186,-4.447,-0.259,-4.742,-1.664
2.597,-15.615,-1.137,-1.933,-6.39,-2.732
-2.782,-2.655,-0.549,-3.664,-7.876,-2.555
-7.143,3.096,-0.077,-3.328,-6.157,-2.667
-8.064,10.983,3.158,-2.324,-2.681,-1.969
-6.384,13.97,5.003,-1.489,0.812,0.169
-4.126,11.715,2.386,0.193,4.256,2.093
2.235,-1.818,1.451,1.999,6.194,2.69
5.613,-7.326,1.721,1.799,4.778,3.379
5.624,-12.925,-1.273,0.799,3.468,3.17
4.71,-13.585,-4.884,0.365,1.85,1.922
3.545,-12.581,-5.584,0.401,0.302,1.054
2.601,-11.618,-4.159,0.386,-0.066,0.386
3.494,-10.731,-3.5,0.214,0.278,-0.019
4.3,-10.701,-3.334,0.047,-0.458,-0.238
4.433,-11.624,-4.954,-0.136,-1.755,-0.429
3.628,-13.962,-5.341,-0.228,-3.651,-0.871
2.866,-16.194,-3.511,-0.765,-5.221,-1.638
2.637,-14.814,-1.394,-2.359,-6.723,-2.463
0.032,-5.401,0.289,-4.072,-8.169,-2.186
-3.825,0.505,0.909,-3.763,-5.837,-2.185
-4.611,7.553,3.064,-2.645,-2.345,-1.357
-3.319,11.485,4.238,-1.64,1.148,0.785
-0.351,8.623,2.269,-0.096,4.368,2.461
2.435,-1.223,0.277,1.692,6.329,2.912
5.581,-6.434,0.373,1.58,5.231,3.381
6.639,-11.699,-1.797,0.575,4.139,3.182
6.31,-13.536,-5.112,0.074,2.932,1.875
4.144,-12.161,-5.513,0.06,1.674,1.036
4.303,-11.999,-4.636,-0.025,1.34,0.415
5.447,-12.371,-4.399,-0.15,0.419,0.155
4.93,-14.027,-4.027,-0.312,-1.51,-0.044
3.039,-16.436,-3.452,-0.516,-3.567,-0.507
2.027,-17.076,-2.034,-1.327,-5.529,-1.486
3.028,-10.529,1.471,-2.87,-7.155,-2.541
-2.613,-1.881,1.064,-3.61,-8.046,-2.658
-4.155,3.977,2.584,-2.716,-5.025,-2.303
-1.169,9.922,3.534,-1.74,-1.761,-0.877
0.082,11.761,2.787,-0.522,1.731,1.128
-1.297,4.699,-0.381,1.222,4.842,2.832
4.546,-3.61,0.089,2.044,7.428,3.323
7.283,-7.604,-1.699,1.428,6.264,3.134
6.54,-11.602,-3.392,0.88,4.802,2.184
6.098,-13.385,-3.677,0.581,3.625,1.181
6.895,-12.885,-3.786,0.367,2.519,0.541
6.591,-12.867,-3.095,0.172,1.416,0.189
6.255,-13.558,-2.768,-0.096,0.447,0.125
5.576,-14.058,-2.601,-0.457,-0.292,0.059
5.741,-14.816,-2.433,-0.588,-1.722,-0.145
4.328,-15.443,-1.19,-0.821,-3.354,-0.804
3.421,-14.214,0.64,-1.925,-4.837,-2.15
3.972,-4.066,0.591,-2.876,-6.196,-2.98
-0.275,-0.29,1.281,-2.849,-6.56,-3.457
-3.864,4.374,1.217,-2.161,-3.953,-2.6
-1.027,8.37,4.038,-1.679,-0.833,-0.414
2.29,8.307,1.842,-0.859,1.783,1.769
2.434,-1.123,1.282,0.07,3.929,3.347
6.929,-4.797,-0.51,0.107,4.677,4.481
9.775,-8.984,-2.327,-0.414,2.896,4.305
6.806,-12.102,-7.176,-0.545,1.37,3.115
3.939,-12.904,-6.842,-0.154,1.223,2.56
3.738,-12.244,-5.155,-0.063,1.281,2.254
3.196,-10.135,-3.387,-0.018,1.342,2.03
2.884,-7.848,-1.947,-0.003,1.448,1.825
2.378,-7.43,-2.004,0.012,1.235,1.505
0.394,-8.297,-3.554,-0.117,0.331,1.06
-3.35,-11.302,-4.324,-0.28,0.085,0.166
-3.517,-14.317,-4.19,-0.733,-0.01,-0.707
-2.592,-16.149,-2.764,-1.765,-1.828,-1.64
-2.142,-14.728,-0.241,-3.469,-3.582,-2.207
0.32,-6.454,2.237,-4.954,-5.147,-2.025
-1.671,0.92,1.56,-5.152,-7.02,-1.677
-5.093,6.458,3.117,-4.17,-5.168,-1.434
-4.207,9.747,3.862,-2.548,-1.676,0.059
-2.139,10.212,3.482,-0.775,1.817,1.463
-0.632,3.265,2.74,0.824,5.134,2.223
5.753,-1.617,3.355,1.349,7.53,2.858
9.219,-6.448,1.26,1.109,6.217,3.312
8.61,-9.895,-0.247,0.663,5.115,2.658
7.748,-12.152,-1.146,0.587,3.819,1.773
7.245,-13.629,-1.699,0.527,2.104,0.981
6.681,-16.366,-1.394,0.276,0.265,0.539
6.282,-18.397,-0.47,-0.438,-1.84,0.351
4.869,-19.484,0.813,-1.382,-3.955,-0.122
4.22,-17.387,1.445,-2.723,-6.152,-1.044
3.428,-11.178,3.91,-4.137,-7.755,-1.462
-1.582,-1.97,2.266,-4.887,-8.398,-1.835
-3.086,3.909,1.312,-4.077,-4.978,-1.72
-1.564,9.375,2.743,-2.705,-1.761,-0.503
2.594,8.27,4.095,-1.726,1.731,1.701
4.228,3.515,1.304,-0.685,4.234,3.048
9.97,-3.303,0.956,-0.074,5.548,4.026
11.378,-5.316,-0.168,-0.246,3.071,4.455
9.23,-8.342,-3.686,-0.628,1.582,3.731
4.676,-7.914,-5.533,-0.129,0.937,2.442
2.51,-7.284,-4.806,0.494,1.21,1.258
2.544,-9.319,-3.963,0.836,2.094,0.174
4.809,-13.281,-3.55,0.393,1.873,-0.587
5.712,-17.084,-2.322,-0.522,-0.13,-0.827
5.056,-18.917,-2.374,-1.607,-2.575,-1.11
5.215,-18.153,-2.142,-2.734,-5.251,-1.717
4.39,-12.069,-0.436,-3.889,-7.448,-2.223
1.958,-3.028,-0.134,-4.794,-8.244,-2.514
-1.128,3.847,-0.742,-4.155,-5.907,-2.942
-1.6,5.924,-0.515,-3.085,-2.817,-2.099
-2.985,7.029,-0.736,-2.008,0.576,-0.344
-0.437,6.001,-0.579,-1.154,4.068,1.557
2.354,1.216,-1.564,-0.383,6.385,2.675
7.771,-2.065,-3.083,-0.54,5.987,3.69
9.492,-2.829,-4.266,-0.689,4.185,3.545
11.835,-4.827,-4.515,-0.74,3.021,2.973
9.602,-6.914,-5.792,-0.422,1.59,2.321
8.439,-7.459,-5.274,0.031,1.07,1.968
8.496,-8.053,-5.995,0.184,0.331,1.536
8.403,-9.519,-7.328,0.264,-1.36,0.84
5.928,-11.882,-7.55,-0.155,-3.688,-0.308
2.757,-13.037,-6.65,-1.258,-5.75,-1.726
1.078,-10.49,-5.554,-2.854,-7.138,-3.126
-0.493,-3.647,-4.134,-4.506,-8.338,-3.967
-3.408,1.056,-2.399,-4.992,-6.761,-4.199
-4.699,5.7,-2.974,-4.241,-3.269,-3.02
-3.563,10.937,0.628,-2.663,0.224,-0.661
3.98,8.171,3.646,-1.603,3.308,1.624
5.286,2.535,4.125,-0.499,5.505,3.426
9.455,-2.09,2.63,-0.422,5.741,4.874
11.489,-5.266,1.958,-0.597,3.206,5.183
9.881,-10.582,-2.873,-0.977,2.067,4.034
3.695,-10.14,-6.189,-0.433,1.909,2.76
3.532,-10.424,-5.722,0.207,1.945,1.579
2.795,-9.004,-4.115,0.593,1.92,0.519
4.897,-8.683,-3.423,0.459,2.531,-0.384
10.562,-9.056,-5.008,0.298,1.026,-0.849
11.391,-11.581,-5.106,0.313,-2.309,-1.237
9.795,-13.27,-5.086,0.066,-4.542,-2.056
9.496,-13.261,-4.117,-0.6,-6.33,-3.165
8.317,-9.499,-1.365,-1.858,-7.899,-4.331
3.693,-0.928,-0.331,-3.232,-8.746,-4.477
-1.503,4.573,0.179,-3.049,-5.837,-4.385
-2.677,10.158,-0.301,-2.112,-2.345,-3.14
-2.994,12.283,1.059,-0.87,1.148,-0.732
1.318,8.618,0.678,-0.016,4.64,1.805
4.461,2.004,1.234,1.126,6.542,3.38
8.436,-1.789,-0.807,0.905,5.126,4.797
7.872,-6.935,-1.889,0.48,2.719,5.3
4.71,-9.851,-4.935,-0.05,1.481,4.399
0.35,-9.623,-6.544,0.285,0.767,3.255
-0.496,-9.221,-5.648,0.539,0.601,1.994
-0.864,-7.637,-3.879,0.607,0.792,0.718
1.336,-5.959,-2.398,0.467,1.85,-0.356
5.423,-5.512,-2.047,0.551,1.288,-0.864
6.278,-6.916,-3.042,0.579,-0.362,-1.298
7.24,-10.772,-5.129,0.28,-2.098,-1.731
6.289,-15.283,-4.374,-0.595,-3.781,-2.095
2.849,-17.313,-2.769,-2.267,-5.925,-2.267
0.909,-12.12,-2.065,-4.241,-7.306,-2.508
-1.435,-2.321,-2.601,-6.05,-8.434,-2.378
-5.572,4.816,-0.076,-5.751,-4.942,-2.452
-5.412,12.374,-0.854,-4.194,-1.449,-1.566
-2.727,17.001,0.249,-1.997,2.043,-0.039
2.007,10.425,0.784,-0.493,5.224,1.474
5.621,2.415,1.828,0.921,7.588,2.445
9.039,-2.337,0.429,0.709,5.974,3.663
10.206,-6.196,-0.166,-0.041,4.441,3.784
10.859,-9.648,-2.93,-0.644,3.135,2.995
7.89,-8.025,-3.492,-0.294,1.768,2.143
5.955,-7.931,-2.39,0.288,1.135,1.545
6.488,-7.245,-1.085,0.722,1.226,0.98
9.475,-9.215,-1.665,0.73,0.677,0.534
11.715,-12.197,-3.152,0.645,-1.174,0.098
10.842,-14.984,-2.745,0.454,-3.299,-0.599
9.755,-16.538,-1.62,-0.23,-5.031,-1.806
9.307,-13.993,-0.516,-1.49,-7.0,-3.298
6.142,-4.867,0.978,-2.994,-8.411,-3.965
-0.532,1.296,2.653,-2.919,-6.404,-4.39
-2.689,6.866,2.3,-2.17,-2.911,-3.278
-2.181,9.335,3.918,-1.566,0.581,-0.617
3.643,7.425,2.608,-1.377,3.804,1.921
6.735,2.209,0.591,-0.328,4.214,3.918
9.88,1.156,1.489,-0.158,1.872,5.744
2.976,-1.504,3.096,0.28,-1.408,5.08
0.239,-2.77,1.365,0.814,-1.408,3.751
-6.127,-3.029,1.313,2.07,-2.323,2.691
-10.329,-4.219,3.571,2.652,-1.539,1.131
-10.502,-5.223,2.899,2.327,0.402,-0.552
-1.763,-4.477,1.048,1.124,2.409,-0.999
0.775,-5.81,-2.031,0.154,0.06,-1.794
-3.304,-9.412,-2.599,-1.003,-2.248,-2.314
-7.334,-12.973,-2.079,-2.2,-2.853,-2.269
-7.038,-14.737,-2.986,-3.574,-3.416,-2.32
-5.645,-11.771,-2.031,-5.084,-5.037,-2.596
-7.36,-3.15,-4.553,-6.014,-6.146,-2.148
-4.358,5.063,-5.056,-4.561,-3.034,-1.893
0.31,11.139,-7.091,-2.569,-0.249,-1.253
1.6,12.518,-5.018,-0.414,1.865,0.255
3.027,6.788,-5.162,1.176,4.759,2.162
7.412,-1.725,-1.997,2.37,6.75,3.54
7.573,-7.693,-1.765,2.092,3.638,4.989
2.4,-10.969,-0.843,1.978,1.14,4.559
-0.058,-11.255,-1.763,1.865,1.14,3.829
-1.872,-8.734,-2.247,2.159,0.721,2.769
-4.85,-7.172,-1.092,2.11,-0.1,1.316
-6.238,-6.584,-0.614,1.349,1.375,-0.037
-2.201,-7.031,-1.153,-0.007,2.109,-0.275
-2.375,-8.274,-2.591,-1.426,-0.539,-0.924
-6.28,-10.179,-2.788,-2.718,-3.103,-1.395
-8.429,-11.537,-3.418,-3.824,-3.058,-1.637
-7.446,-10.509,-3.771,-4.852,-2.594,-2.146
-4.469,-5.003,-2.957,-5.67,-3.327,-3.207
-2.201,0.531,-4.181,-5.938,-4.171,-3.494
-3.311,3.23,-4.3,-4.576,-1.905,-3.429
-0.551,6.843,-4.104,-2.884,0.338,-2.233
3.322,7.894,-4.238,-1.343,1.891,-0.46
3.359,4.666,-5.747,0.185,2.745,1.834
2.528,0.298,-4.699,1.837,4.111,3.328
5.286,-1.29,-5.339,2.232,3.028,4.203
2.856,-4.696,-5.4,2.367,1.633,3.861
-2.329,-7.362,-5.204,2.518,0.674,2.966
-4.808,-9.568,-5.012,2.401,1.637,1.92
-4.049,-9.827,-4.669,1.913,2.265,0.802
-2.732,-10.574,-4.933,1.009,1.886,0.071
-1.486,-11.739,-5.936,0.089,0.584,-0.476
-1.849,-13.304,-5.847,-0.692,-1.804,-0.908
-3.694,-15.459,-3.93,-1.58,-3.823,-1.269
-3.887,-14.542,-3.858,-3.01,-4.604,-1.72
-2.041,-9.104,-2.368,-4.406,-5.919,-2.311
-2.568,-0.302,-2.178,-4.996,-6.338,-2.366
-2.898,6.215,-2.692,-3.787,-2.99,-1.885
2.505,11.639,-0.648,-2.044,-0.172,0.035
5.214,10.447,-0.433,-0.614,1.44,1.933
3.641,6.009,-2.003,1.273,3.083,3.771
3.671,-2.543,-1.332,2.504,3.604,4.53
2.713,-7.689,-1.384,1.969,2.001,4.205
-0.782,-11.21,-4.622,1.147,1.384,2.53
-2.538,-10.897,-4.599,1.016,0.686,0.983
-2.571,-11.122,-3.71,0.584,0.995,-0.321
-0.522,-10.545,-3.928,0.02,2.258,-1.036
3.473,-11.398,-4.61,-0.531,1.605,-0.982
2.004,-14.034,-4.901,-1.255,-1.271,-0.901
-1.563,-16.124,-4.478,-2.246,-3.178,-0.926
-1.758,-14.194,-4.582,-3.668,-4.495,-1.404
-0.705,-7.067,-2.189,-5.241,-6.654,-1.693
-6.51,0.996,-3.107,-5.293,-7.62,-1.92
-5.822,9.737,-0.321,-3.376,-4.127,-1.564
-0.787,14.46,0.673,-1.462,-0.854,0.125
-0.448,12.894,0.04,0.598,1.694,2.078
-2.099,5.594,-3.844,2.694,3.472,3.508
0.36,-1.256,-2.798,3.619,4.064,4.334
-1.21,-6.911,-6.682,2.785,3.239,4.249
-3.501,-9.713,-7.994,2.388,2.463,2.936
-3.227,-9.95,-7.091,2.125,1.322,1.633
-3.142,-8.534,-4.978,1.843,1.047,0.515
-0.868,-8.044,-4.575,1.117,1.849,-0.258
1.783,-9.54,-4.866,0.422,0.182,-0.668
-0.487,-12.669,-5.505,-0.533,-2.535,-1.223
-3.366,-15.282,-3.74,-1.836,-4.578,-1.73
-4.582,-13.023,-3.893,-3.651,-5.963,-2.089
-2.241,-4.154,-3.664,-5.275,-7.628,-1.894
-5.306,3.378,-3.303,-4.51,-6.171,-1.707
-5.375,11.491,-1.962,-2.655,-2.678,-1.205
-4.51,14.634,0.853,-0.49,0.814,-0.059
0.766,10.535,2.833,1.584,4.188,1.426
1.408,0.855,2.63,3.508,5.421,2.213
3.84,-6.492,3.696,3.218,3.111,2.753
3.097,-11.685,2.669,2.044,1.087,2.714
4.018,-12.073,-1.426,1.15,0.714,1.974
1.295,-9.743,-2.167,1.035,-0.208,0.713
0.441,-8.335,-0.123,1.088,0.142,-0.309
2.223,-7.484,1.33,0.995,1.626,-1.078
6.161,-10.193,1.594,0.688,2.101,-1.133
8.286,-14.821,-0.414,0.149,-0.219,-0.9
5.932,-19.753,-0.431,-0.435,-2.789,-0.65
3.395,-21.981,1.295,-1.89,-4.372,-0.911
3.848,-15.271,1.756,-3.748,-6.003,-1.439
1.623,-2.67,-0.752,-5.065,-7.946,-1.23
-3.234,6.503,1.054,-4.164,-5.677,-1.306
-3.72,14.996,2.63,-2.729,-2.184,-0.841
0.89,17.531,2.35,-0.873,1.308,0.994
1.195,11.298,0.636,1.161,3.874,2.509
2.354,-0.451,2.786,2.836,6.052,2.875
5.465,-7.536,1.665,2.43,5.204,3.08
7.066,-12.786,-1.629,1.414,4.091,2.58
5.078,-14.008,-4.426,0.917,2.505,1.176
4.517,-13.94,-3.778,0.621,1.54,0.366
5.289,-11.489,-2.785,0.341,1.291,-0.156
6.129,-8.915,-2.263,0.148,1.05,-0.422
7.89,-10.161,-3.21,-0.017,0.215,-0.528
8.359,-12.639,-4.672,-0.357,-1.691,-0.551
5.551,-16.009,-3.573,-1.008,-3.292,-0.93
3.904,-16.092,-3.114,-2.45,-5.21,-1.443
3.949,-12.091,-0.714,-4.163,-7.19,-1.728
-0.11,-0.777,-1.617,-5.231,-8.735,-1.387
-7.976,7.242,1.828,-4.161,-5.243,-1.706
-6.508,15.342,5.549,-2.51,-1.75,-0.331
-0.532,14.538,9.426,-1.085,1.731,1.966
1.866,10.728,5.251,0.199,3.504,3.535
3.05,1.183,5.951,1.655,4.504,4.39
6.618,-4.818,2.327,1.119,2.379,5.219
6.736,-10.253,-3.747,0.426,1.257,4.248
2.951,-9.564,-8.246,0.664,-0.215,2.378
0.846,-9.793,-5.546,1.223,-0.446,1.115
2.047,-8.915,-2.647,1.029,0.093,-0.006
4.92,-7.387,-0.058,0.767,0.502,-0.571
6.689,-8.009,0.018,0.427,-0.243,-0.796
7.399,-11.72,-1.754,0.148,-2.165,-0.911
5.022,-15.386,-0.936,-0.433,-3.707,-1.5
3.651,-16.303,-0.247,-1.734,-5.246,-2.062
1.955,-12.302,0.974,-3.544,-7.023,-2.619
0.82,-1.171,-2.081,-5.012,-8.649,-2.205
-5.22,6.76,0.431,-4.222,-5.414,-2.002
-4.167,14.468,-0.709,-2.775,-1.921,-0.606
-1.567,15.696,-1.052,-1.045,1.571,1.645
2.987,10.62,-4.1,0.577,4.406,3.669
3.262,1.661,-2.368,2.114,4.903,4.757
1.404,-3.141,-4.018,1.834,1.895,5.278
-1.767,-7.319,-3.948,1.093,1.895,4.713
-0.402,-7.769,-3.808,0.814,1.895,2.887
-2.235,-6.27,-2.143,1.036,0.24,1.309
-2.793,-5.655,0.106,1.038,0.972,-0.194
3.356,-3.99,0.704,0.705,2.241,-0.845
7.239,-3.906,-0.359,0.604,0.413,-1.148
6.422,-6.833,-3.903,0.519,-1.608,-1.331
6.567,-13.014,-5.512,0.378,-2.788,-1.411
5.305,-17.984,-6.268,-0.165,-4.017,-1.732
5.858,-16.233,-7.185,-1.209,-5.57,-2.852
6.102,-8.181,-7.282,-2.819,-7.234,-3.291
3.44,-1.562,-4.58,-3.114,-8.706,-3.401
-1.088,6.997,-3.2,-2.506,-5.719,-2.898
0.662,15.373,-1.42,-1.096,-2.226,-1.295
2.22,14.852,-0.386,0.067,1.225,1.36
2.601,5.132,-1.397,1.628,3.803,2.814
3.302,0.104,-4.293,1.934,5.515,3.805
4.534,-4.855,-6.38,1.614,4.594,3.761
5.074,-10.135,-9.048,0.863,3.969,2.999
4.06,-13.121,-9.771,0.757,2.526,1.955
3.84,-11.584,-8.378,0.645,1.888,1.449
4.386,-10.315,-6.752,0.38,2.008,1.293
6.711,-9.316,-6.176,-0.074,1.255,1.403
6.197,-10.775,-6.266,-0.601,-1.61,1.343
2.522,-12.954,-4.958,-1.126,-3.66,0.914
-1.155,-14.866,-2.996,-2.103,-5.198,-0.017
-0.374,-11.706,-1.782,-3.291,-6.496,-1.216
-1.121,-2.553,0.049,-4.828,-7.809,-1.596
-6.101,3.137,0.922,-4.3,-6.089,-1.928
-5.201,10.335,2.148,-2.68,-2.596,-1.516
-1.802,12.912,2.823,-1.031,0.495,0.247
-0.265,7.913,1.11,0.31,2.693,2.212
0.315,-0.394,-1.231,2.198,3.123,3.351
1.59,-3.659,-0.418,2.499,1.4,4.087
-1.806,-8.146,-2.056,1.803,0.528,4.005
-4.245,-8.275,-3.15,1.588,0.528,2.915
-6.748,-6.097,-1.134,1.987,1.288,1.843
-6.039,-6.617,0.765,2.219,2.964,0.862
-2.697,-8.835,-0.233,1.88,4.351,0.267
2.135,-11.064,-1.483,1.276,2.43,0.114
1.153,-13.859,-2.79,0.56,-0.824,-0.107
-1.474,-16.566,-3.623,-0.321,-3.118,-0.399
-3.543,-17.078,-3.098,-1.709,-4.493,-1.148
-2.753,-11.261,-1.138,-3.284,-5.717,-1.884
-2.95,-2.499,-2.203,-4.329,-6.074,-2.04
-1.894,3.324,-2.268,-3.572,-3.095,-1.816
1.661,7.813,-2.673,-2.488,-0.8,-0.74
4.324,8.89,-3.252,-1.297,1.961,1.134
5.122,3.797,-5.346,0.05,4.399,2.865
5.983,-2.679,-4.869,1.269,5.488,3.867
6.073,-6.372,-5.87,1.129,3.64,4.414
2.378,-8.683,-5.821,0.77,2.649,3.951
-0.13,-8.637,-6.024,0.702,2.464,2.83
-1.084,-7.171,-5.156,0.83,2.788,1.479
0.154,-7.474,-5.076,0.733,3.55,0.165
3.433,-8.281,-5.683,0.288,3.82,-0.901
7.654,-9.316,-8.096,-0.203,2.682,-1.412
9.471,-11.689,-10.421,-0.558,-0.569,-1.512
7.765,-13.941,-10.255,-0.899,-3.495,-1.355
3.597,-14.693,-6.684,-1.823,-5.686,-1.527
1.877,-10.12,-5.518,-3.0,-6.617,-1.899
-0.133,-3.469,-2.837,-4.271,-7.981,-2.183
-5.48,2.717,-0.323,-3.661,-5.049,-2.512
-3.621,7.269,1.756,-2.583,-1.556,-1.531
1.187,10.004,-0.838,-1.567,1.936,0.343
2.753,6.727,-2.052,-0.26,3.641,2.302
3.095,1.403,-4.207,1.457,5.235,3.638
5.86,-2.684,-6.039,1.699,3.72,4.634
2.81,-5.594,-8.32,1.47,2.857,3.975
0.142,-7.041,-7.14,1.736,2.857,2.658
-0.799,-6.935,-4.83,1.93,3.48,1.162
0.022,-7.325,-2.721,1.867,4.335,-0.26
3.907,-8.932,-0.977,1.296,4.748,-1.379
9.552,-11.314,-0.957,0.529,3.593,-1.407
12.181,-14.316,-2.112,-0.105,1.439,-0.709
11.32,-17.054,-2.113,-0.495,-1.598,0.063
7.684,-18.555,-1.173,-1.266,-4.048,-0.047
5.758,-13.415,-0.529,-2.4,-5.934,-0.668
2.977,-2.179,0.554,-3.965,-7.409,-1.149
-3.452,3.155,1.632,-3.722,-7.451,-2.169
-4.754,8.697,1.74,-2.907,-3.959,-2.308
-0.763,12.566,2.345,-1.868,-0.466,-0.528
2.13,9.532,1.004,-0.966,2.838,1.674
3.252,1.211,-1.696,0.74,4.366,3.072
5.806,-1.403,-4.215,1.244,3.762,4.29
3.993,-5.265,-5.633,1.261,2.174,4.348
0.816,-7.599,-7.432,1.264,1.495,3.528
-3.394,-7.471,-7.022,1.802,0.224,2.29
-5.871,-7.06,-5.493,1.995,0.908,0.785
-4.068,-6.355,-4.376,1.592,2.694,-0.766
1.234,-6.644,-5.444,0.829,3.338,-1.651
6.179,-9.626,-7.573,0.174,2.038,-2.057
7.487,-13.04,-8.753,-0.257,0.005,-1.757
6.777,-15.702,-8.198,-0.652,-2.078,-1.489
5.222,-17.358,-6.518,-1.683,-4.362,-1.471
4.922,-12.039,-4.188,-2.862,-6.781,-1.881
3.046,-1.561,-0.525,-4.264,-8.295,-2.058
-2.658,5.446,0.248,-3.894,-6.288,-2.356
-1.789,11.814,1.176,-2.494,-2.924,-1.787
0.555,14.545,2.627,-0.717,0.376,-0.017
1.469,7.889,2.327,0.759,3.738,1.774
1.463,0.061,0.152,2.484,5.511,2.705
6.112,-5.125,-0.48,2.511,4.829,3.168
5.373,-9.895,-1.967,1.66,3.721,2.792
4.863,-11.421,-3.787,1.076,3.407,1.491
3.994,-8.847,-3.319,1.151,2.425,0.2
4.633,-8.669,-1.234,1.312,3.014,-0.885
8.734,-9.864,0.525,0.99,3.484,-1.316
13.079,-12.71,0.244,0.35,2.356,-0.931
14.436,-15.306,0.154,-0.181,-0.822,-0.058
11.089,-17.828,2.18,-0.937,-3.333,0.38
8.237,-16.53,0.724,-2.259,-5.537,0.069
6.151,-11.154,2.385,-3.745,-7.331,-0.541
0.798,1.205,0.187,-4.295,-8.588,-0.82
-2.275,8.28,0.794,-3.139,-5.095,-1.176
0.6,13.786,-1.24,-1.816,-1.603,-0.201
3.516,13.334,-0.571,-0.493,1.731,1.633
2.325,10.224,-3.238,1.118,3.67,2.891
3.153,-0.729,-2.898,1.848,5.764,2.813
2.992,-5.8,-7.246,0.971,5.164,1.96
4.004,-9.535,-8.932,0.245,4.861,0.402
5.282,-9.439,-9.963,-0.159,3.528,-0.847
7.721,-9.733,-10.211,-0.424,3.42,-1.146
13.54,-9.514,-10.101,-0.391,2.31,-0.717
17.029,-10.039,-7.303,-0.254,-0.582,0.292
13.612,-11.16,-5.614,-0.491,-3.772,0.551
8.841,-10.637,-5.568,-1.257,-5.765,-0.508
7.563,-5.325,-3.677,-2.569,-7.595,-1.764
-1.213,1.687,-1.663,-2.873,-7.661,-2.941
-1.773,2.845,-1.331,-2.581,-4.206,-2.883
-1.86,9.034,-1.553,-1.839,-0.714,-1.547
3.231,9.281,-0.866,-0.962,2.613,1.167
2.568,5.12,-3.733,0.575,4.753,3.17
6.916,-1.838,-5.244,1.404,6.377,4.797
4.725,-3.281,-6.434,1.504,5.268,4.824
5.318,-8.727,-6.982,1.331,4.439,3.972
1.918,-10.251,-6.781,1.681,3.807,2.384
2.05,-10.955,-4.503,1.96,4.221,1.182
4.004,-10.27,-1.975,1.798,3.836,0.102
6.983,-11.934,0.011,1.276,2.928,-0.415
9.534,-14.02,0.146,0.659,1.032,-0.47
9.948,-16.559,1.259,0.268,-1.56,-0.367
9.376,-17.599,3.154,-0.448,-3.752,-0.633
8.863,-14.298,3.97,-1.647,-5.909,-1.419
6.624,-6.198,5.448,-2.961,-7.347,-1.961
1.48,2.045,5.268,-2.818,-7.594,-1.92
-0.654,8.778,4.543,-1.828,-4.369,-1.476
-1.285,11.729,2.854,-0.77,-1.24,-0.077
-0.615,9.439,1.338,0.444,2.253,1.734
1.287,3.191,-1.981,1.824,4.244,2.829
3.868,-2.701,-2.98,2.113,4.933,2.825
3.515,-7.427,-4.263,1.38,4.265,2.126
5.699,-9.649,-5.18,0.952,4.23,0.918
7.143,-10.795,-6.182,0.793,2.689,-0.024
7.532,-11.298,-6.508,0.675,1.993,-0.394
10.648,-13.227,-7.248,0.316,2.191,-0.113
14.08,-14.754,-7.168,0.089,0.084,0.384
12.185,-15.828,-5.768,-0.404,-3.373,0.133
9.929,-12.787,-3.25,-1.374,-5.325,-0.896
7.446,-4.834,1.595,-2.971,-6.62,-1.709
0.546,1.758,2.411,-3.056,-7.779,-2.373
-3.989,7.778,4.6,-2.085,-5.004,-2.389
-2.777,12.036,5.516,-1.103,-1.512,-0.722
-1.418,10.164,4.512,-0.068,1.981,1.598
0.693,2.522,-0.121,1.752,4.003,3.174
3.899,-2.666,-0.217,2.408,4.811,4.175
4.069,-7.648,-3.384,2.009,3.495,4.268
1.743,-11.339,-5.843,1.797,3.166,3.318
-0.238,-11.981,-6.218,1.972,2.73,2.171
-0.852,-10.9,-4.5,2.031,3.048,1.187
1.444,-10.797,-3.262,1.664,3.56,0.342
4.414,-11.449,-2.645,1.092,2.63,-0.107
5.936,-13.354,-2.686,0.492,0.772,-0.377
5.279,-15.686,-1.767,-0.07,-1.733,-0.762
4.646,-16.565,-0.546,-0.947,-4.073,-1.479
5.26,-15.355,1.642,-2.486,-5.643,-2.134
4.901,-6.695,5.44,-4.205,-6.89,-1.853
-0.217,1.84,3.617,-4.487,-8.195,-1.393
-2.118,9.507,2.35,-3.338,-5.254,-1.178
-4.067,14.946,1.417,-1.328,-1.761,-0.388
-5.205,15.117,2.292,1.291,1.731,0.989
-2.944,5.417,0.609,3.526,5.224,1.669
3.196,-2.394,1.856,4.159,7.655,2.053
5.191,-8.644,1.105,3.501,5.713,2.547
5.969,-14.137,-0.391,2.332,4.078,2.434
6.157,-15.021,-3.46,1.172,2.94,1.639
5.041,-12.062,-4.447,0.628,1.424,0.611
4.286,-9.728,-3.423,0.318,0.802,-0.293
5.792,-9.869,-3.649,0.11,0.968,-0.783
8.147,-12.455,-4.094,-0.099,0.376,-0.705
8.875,-15.02,-4.084,-0.22,-1.634,-0.455
8.184,-17.135,-2.66,-0.611,-3.61,-0.501
7.628,-17.243,-1.833,-1.59,-5.42,-0.859
7.348,-11.77,0.712,-3.051,-7.136,-1.207
5.432,-1.226,0.481,-4.098,-8.401,-0.849
0.753,7.176,-0.012,-3.206,-6.126,-1.088
-0.146,13.843,-1.179,-1.332,-2.633,-0.659
-0.098,14.386,0.321,0.809,0.859,0.611
-0.026,8.682,-0.125,2.914,4.352,1.911
0.884,-0.475,0.982,4.463,6.82,2.076
3.919,-7.882,0.125,4.0,5.779,2.442
3.502,-14.338,-1.109,2.819,4.18,2.141
3.734,-16.257,-3.926,1.664,3.019,1.312
3.668,-14.536,-4.847,0.92,1.369,0.487
3.05,-12.192,-4.142,0.406,0.513,-0.036
3.968,-11.433,-4.15,0.027,0.642,-0.286
6.495,-12.493,-5.103,-0.338,-0.734,-0.182
4.407,-15.204,-3.738,-0.687,-3.065,-0.334
2.349,-17.047,-2.18,-1.576,-4.908,-0.5
1.385,-15.189,-1.802,-3.201,-6.52,-0.719
1.377,-7.058,-0.73,-4.804,-8.229,-0.612
-2.23,2.325,-1.727,-4.83,-7.702,-0.454
-2.539,12.208,-2.849,-3.12,-4.209,-0.232
-2.798,17.39,-0.854,-0.82,-0.717,0.635
-0.483,12.712,1.784,1.381,2.776,1.925
2.19,4.604,1.259,3.177,5.45,2.618
3.756,-4.123,3.056,3.705,5.381,3.043
3.304,-11.542,2.34,2.656,4.054,3.016
5.036,-15.666,-1.051,1.471,3.506,2.162
4.842,-13.056,-4.326,1.07,2.035,0.915
2.336,-12.542,-3.665,0.989,0.915,0.02
3.46,-11.882,-3.527,0.571,1.435,-0.673
6.775,-13.169,-4.258,0.138,0.569,-0.722
7.44,-16.041,-4.537,-0.196,-2.123,-0.572
5.832,-18.383,-2.7,-0.781,-4.145,-0.751
5.545,-17.112,-1.113,-2.088,-5.699,-1.36
5.426,-11.326,2.349,-3.711,-7.195,-1.468
2.831,0.005,1.756,-4.508,-8.494,-0.889
-1.314,8.287,1.632,-3.531,-5.496,-0.931
-3.443,16.298,0.442,-1.77,-2.004,-0.491
-3.774,16.241,4.52,0.552,1.489,1.028
-0.386,8.976,3.267,2.411,4.981,1.954
2.93,-1.424,4.68,3.674,6.777,2.2
4.837,-8.14,4.117,3.115,4.855,2.548
6.932,-14.675,2.649,2.023,3.614,2.434
7.614,-15.781,-2.766,1.093,2.309,1.474
4.918,-13.174,-4.235,0.952,0.833,0.651
4.564,-12.482,-3.596,0.623,0.728,-0.08
6.562,-12.088,-3.769,0.301,0.708,-0.341
8.133,-14.406,-4.203,-0.001,-0.803,-0.27
7.051,-16.847,-2.991,-0.309,-2.991,-0.22
5.681,-18.009,-0.678,-1.19,-5.007,-0.576
4.969,-13.513,0.878,-2.577,-6.698,-1.224
3.91,-3.335,1.594,-4.108,-8.007,-1.015
-1.816,5.389,2.102,-3.451,-6.246,-1.045
-1.927,13.503,1.253,-1.999,-2.754,-0.65
-3.213,16.401,2.141,-0.135,0.739,0.533
-1.302,10.393,3.09,1.692,4.231,2.043
0.899,0.113,3.208,3.523,6.481,2.365
4.614,-6.849,3.181,3.278,5.679,2.598
4.924,-12.764,2.166,2.276,4.67,2.259
7.335,-14.958,-0.658,1.458,3.303,1.357
6.42,-13.118,-2.64,1.077,1.85,0.343
5.843,-12.216,-2.473,0.777,1.142,-0.264
8.029,-12.4,-2.334,0.339,0.654,-0.485
10.349,-14.9,-3.04,-0.196,-1.316,-0.269
9.585,-17.035,-2.538,-0.661,-3.441,-0.184
7.858,-17.508,-1.198,-1.451,-5.481,-0.66
6.521,-13.757,-0.234,-2.568,-7.022,-1.625
4.214,-6.077,1.326,-3.997,-8.233,-2.174
-1.573,2.307,1.571,-3.416,-6.877,-2.445
-2.798,9.552,3.1,-2.026,-3.385,-1.895
-2.75,10.966,3.993,-0.725,0.108,0.121
0.468,7.873,3.842,0.397,3.6,2.11
2.308,1.146,1.768,1.938,5.383,3.34
5.434,-4.967,1.393,1.896,5.284,3.872
5.508,-10.594,-1.227,1.087,4.605,3.377
7.445,-11.417,-3.289,0.791,4.011,1.843
5.816,-11.357,-3.638,0.959,2.642,0.759
6.349,-10.986,-2.513,0.975,2.42,-0.011
9.335,-11.249,-2.194,0.616,1.799,-0.438
14.468,-11.802,-4.346,0.325,-0.916,-0.433
12.874,-14.875,-2.918,0.031,-3.814,-0.744
8.734,-14.86,-2.759,-1.102,-5.938,-1.848
8.463,-10.419,-1.975,-2.332,-7.498,-3.05
6.152,-1.535,-3.507,-3.403,-8.647,-3.436
-0.929,4.833,-1.589,-2.672,-5.651,-3.448
-1.11,11.662,-0.774,-1.584,-2.159,-2.176
4.348,11.16,1.192,-0.561,1.334,0.262
4.765,7.449,0.025,0.409,4.588,2.422
6.487,-1.02,1.206,1.499,6.61,3.491
8.53,-6.434,-0.439,1.123,5.303,3.9
8.489,-10.952,-3.915,0.405,4.853,2.964
7.666,-10.982,-6.838,0.547,3.782,1.576
7.904,-11.615,-6.393,0.637,2.337,0.444
7.809,-11.269,-5.205,0.535,1.782,-0.332
11.446,-11.572,-4.699,-0.024,1.169,-0.711
15.043,-11.819,-5.908,-0.286,-1.67,-0.515
12.501,-13.871,-4.391,-0.279,-4.092,-0.755
9.897,-13.756,-3.5,-0.649,-5.901,-1.696
9.257,-10.055,-1.444,-1.472,-7.369,-2.874
5.462,-1.709,-2.701,-2.191,-8.543,-3.067
0.049,5.395,-0.977,-1.33,-5.269,-2.947
-0.428,10.819,1.028,-0.597,-1.776,-1.425
2.946,9.12,3.25,-0.21,1.716,0.79
5.066,5.715,1.561,0.316,4.664,2.812
7.662,-2.572,2.285,1.192,5.792,3.709
6.836,-9.589,0.971,0.663,3.611,3.561
7.463,-12.62,-2.068,0.016,3.611,2.096
7.527,-10.654,-4.564,0.286,2.882,0.762
6.883,-11.123,-4.833,0.711,1.662,-0.103
8.017,-11.195,-3.401,0.678,1.673,-0.72
14.033,-11.609,-3.743,0.245,0.982,-0.666
16.115,-13.427,-3.698,0.105,-2.511,-0.294
13.42,-14.996,-2.647,-0.176,-5.275,-0.496
10.057,-13.282,-1.628,-0.913,-7.003,-1.463
8.206,-8.328,0.181,-1.973,-8.142,-2.406
2.343,-0.493,-0.624,-2.207,-7.692,-2.565
0.198,5.84,0.134,-1.404,-4.199,-2.092
0.589,8.522,1.214,-0.784,-0.707,-0.452
3.268,7.067,1.723,-0.155,2.786,1.385
4.848,2.088,0.294,0.831,5.447,2.857
7.754,-5.317,1.029,1.335,5.815,3.288
6.549,-11.372,-1.125,0.693,4.684,2.672
7.488,-13.256,-4.361,0.371,4.042,1.239
7.564,-12.973,-5.429,0.463,2.622,0.256
6.915,-11.897,-5.482,0.429,1.695,-0.462
9.215,-12.223,-5.323,-0.002,1.55,-0.86
13.034,-12.553,-5.918,-0.393,-0.383,-0.635
11.641,-13.889,-5.306,-0.609,-3.233,-0.55
9.364,-14.246,-4.71,-0.908,-5.283,-0.98
8.297,-12.777,-3.854,-1.41,-7.016,-1.869
6.971,-7.746,-0.411,-2.376,-8.294,-2.785
1.743,0.955,-0.974,-2.631,-8.212,-2.846
1.663,7.77,-0.748,-1.551,-4.719,-1.912
5.278,9.698,-1.309,-0.667,-1.251,0.274
4.018,8.979,-3.146,0.272,1.576,2.483
1.814,4.275,-5.938,1.76,4.569,4.291
3.784,-3.625,-5.047,2.479,6.859,4.623
4.025,-9.058,-6.989,1.765,6.392,3.817
2.339,-10.906,-7.714,1.518,5.065,2.138
4.677,-12.261,-6.862,1.231,4.17,0.872
7.513,-12.465,-7.187,0.775,2.43,0.047
10.613,-13.244,-7.438,0.39,0.019,-0.17
9.882,-15.35,-6.127,0.01,-3.008,-0.308
7.558,-16.451,-5.233,-0.699,-5.077,-0.932
6.145,-13.499,-4.164,-1.582,-7.009,-2.237
4.865,-6.418,-2.167,-2.743,-8.262,-3.351
0.564,-0.223,-0.352,-3.291,-8.052,-4.145
-0.355,3.381,-0.225,-2.862,-4.734,-3.562
0.712,8.561,1.454,-2.003,-1.337,-1.561
4.732,7.638,1.706,-1.677,2.155,0.974
4.817,3.582,-0.116,-0.884,4.346,2.954
7.394,-0.764,-2.183,-0.387,6.144,4.231
8.245,-2.031,-3.921,-0.464,5.418,4.051
9.509,-6.721,-7.476,-0.449,4.963,2.702
7.104,-8.785,-8.588,0.471,3.92,1.301
9.491,-10.49,-7.563,0.715,4.0,0.154
11.965,-10.464,-5.655,0.638,2.992,-0.451
15.019,-10.853,-5.184,0.2,1.49,-0.521
16.524,-11.474,-5.401,-0.317,-0.991,-0.13
15.322,-12.42,-4.748,-0.607,-3.441,0.143
11.596,-12.751,-3.53,-0.607,-5.711,-0.311
9.511,-9.437,-3.09,-0.903,-7.099,-1.495
7.496,-4.837,-0.881,-1.786,-8.19,-2.524
0.949,2.067,-0.239,-1.696,-6.58,-2.931
0.264,7.577,1.785,-1.013,-3.087,-2.053
4.274,9.355,3.106,-0.995,0.405,-0.051
4.891,7.695,2.574,-0.896,3.443,1.953
5.584,2.778,1.195,0.083,5.636,3.339
8.996,-3.65,0.633,0.337,5.768,3.447
10.045,-8.579,-1.335,0.037,5.141,2.106
9.018,-10.359,-2.777,0.468,4.368,0.424
10.733,-11.973,-2.067,0.826,3.421,-0.624
12.999,-12.034,-1.496,0.752,2.434,-1.057
16.756,-12.54,-1.245,0.211,1.005,-0.712
17.952,-12.943,-0.973,-0.208,-1.86,0.214
15.183,-13.785,-0.733,-0.42,-4.58,0.439
12.772,-13.231,0.013,-0.738,-6.67,-0.273
10.931,-9.611,2.887,-1.584,-7.876,-1.42
5.511,-0.975,4.355,-2.636,-8.746,-1.916
-0.988,4.82,4.043,-2.072,-5.491,-2.363
-0.037,9.566,4.905,-1.15,-1.998,-1.267
1.168,9.479,5.275,-0.828,1.494,0.962
1.732,7.194,1.523,0.011,4.372,2.949
3.865,-0.851,-0.746,1.384,6.099,3.756
6.47,-5.948,-2.96,1.194,5.103,3.857
6.492,-9.861,-4.845,0.73,5.103,2.652
6.628,-10.211,-5.683,0.993,4.393,1.105
6.709,-11.249,-4.908,1.015,3.75,-0.091
8.827,-10.608,-2.723,0.726,3.596,-0.888
12.726,-10.864,-1.565,0.062,2.585,-1.031
15.327,-12.185,-2.927,-0.597,-0.028,-0.646
14.986,-13.871,-3.711,-0.796,-2.669,-0.285
13.411,-14.145,-2.061,-0.581,-4.905,-0.416
11.335,-12.831,-0.603,-0.893,-6.477,-1.377
9.863,-7.437,2.644,-1.932,-7.727,-2.368
2.276,0.919,1.65,-2.093,-8.061,-2.637
-1.034,6.933,3.944,-1.142,-4.71,-2.136
0.679,9.897,5.743,-0.999,-1.217,0.022
2.873,9.702,4.218,-0.812,1.966,2.241
2.959,4.856,0.125,0.394,3.552,4.185
5.812,-2.99,0.371,1.088,4.435,4.907
4.716,-8.592,-3.038,0.423,3.93,4.324
3.921,-11.659,-6.489,0.442,3.496,2.672
2.036,-12.657,-6.885,0.846,2.315,1.705
1.784,-12.023,-5.365,1.075,2.634,0.869
3.92,-10.789,-4.194,0.862,2.847,0.213
7.563,-10.919,-4.759,0.539,1.239,-0.075
7.875,-12.834,-6.939,0.2,-1.212,-0.399
7.611,-15.533,-5.025,0.045,-3.215,-0.786
6.252,-16.956,-2.663,-0.903,-5.12,-1.641
6.634,-12.813,-1.635,-2.142,-6.76,-2.606
6.642,-5.497,1.458,-3.725,-8.14,-2.619
0.202,2.983,2.846,-3.688,-7.76,-2.322
-0.903,10.971,1.618,-2.473,-4.267,-1.662
1.326,14.326,2.407,-0.98,-0.775,0.368
3.114,8.978,3.019,0.089,2.718,2.636
4.162,2.448,0.09,1.718,4.799,3.923
7.285,-4.398,-0.766,2.133,5.26,4.438
6.699,-10.424,-2.862,1.27,4.598,4.139
6.473,-13.095,-6.064,0.719,3.661,2.794
5.136,-11.729,-6.893,0.685,2.196,1.47
3.853,-11.132,-5.817,0.574,1.763,0.328
6.186,-10.936,-5.531,0.166,1.754,-0.415
8.883,-12.059,-5.644,-0.242,-0.07,-0.672
8.468,-14.437,-5.823,-0.507,-2.534,-0.82
7.428,-16.451,-4.632,-0.824,-4.561,-1.245
6.823,-15.784,-1.85,-1.942,-6.209,-1.898
4.864,-9.051,1.843,-3.544,-7.648,-2.042
0.378,-0.885,0.267,-3.98,-8.352,-1.831
-3.683,7.148,1.67,-2.924,-4.951,-1.583
-4.367,13.011,3.505,-1.505,-1.459,0.004
-1.677,9.19,3.791,-0.261,2.034,2.018
2.223,3.898,0.757,1.247,4.344,3.483
5.143,-3.085,2.7,2.172,4.747,4.245
3.834,-9.348,0.363,1.659,3.138,4.209
4.169,-14.017,-2.711,0.961,3.138,3.133
3.143,-11.04,-5.104,1.0,1.995,1.696
1.709,-11.386,-4.407,1.162,1.327,0.429
2.587,-11.439,-3.536,0.83,1.81,-0.446
7.692,-12.057,-3.621,0.345,0.765,-0.564
7.647,-13.614,-4.216,-0.175,-2.636,-0.724
4.367,-15.55,-3.62,-0.75,-4.986,-0.971
2.411,-15.83,-2.479,-1.865,-6.55,-1.527
2.723,-10.807,-0.675,-3.415,-7.738,-2.239
1.604,-1.103,0.312,-4.912,-8.576,-2.019
-3.287,6.024,-0.216,-4.265,-6.145,-2.06
-1.381,12.734,-1.455,-2.568,-2.652,-1.337
-0.697,15.199,-1.428,-0.466,0.762,0.22
-1.002,9.634,-1.592,1.577,4.254,2.106
0.99,1.573,-2.137,3.352,7.046,2.797
5.587,-4.169,-1.873,3.226,6.365,3.646
4.034,-9.227,-2.77,2.329,5.07,3.642
3.608,-12.159,-4.291,1.615,3.953,2.784
3.458,-11.453,-6.114,1.187,2.673,1.578
3.152,-12.5,-6.198,0.935,1.338,0.659
3.783,-13.435,-6.531,0.502,0.558,-0.127
5.684,-15.829,-6.014,-0.016,-1.122,-0.642
5.63,-17.832,-4.372,-0.716,-3.497,-1.093
4.974,-17.545,-1.409,-1.967,-5.71,-1.673
4.346,-10.449,1.395,-3.57,-7.166,-2.331
1.792,-1.865,1.33,-4.603,-8.229,-1.993
-2.576,4.983,2.358,-3.88,-5.795,-2.167
-3.925,12.587,1.513,-2.328,-2.302,-1.658
-4.126,14.699,2.409,-0.191,1.19,-0.199
-2.692,7.173,2.14,1.758,4.683,1.493
0.861,0.01,3.231,3.081,7.376,2.035
5.014,-5.208,2.153,2.844,6.269,3.02
6.001,-11.292,0.595,2.06,4.458,3.118
5.611,-13.957,-3.015,1.35,2.99,2.282
3.681,-12.535,-4.86,1.134,1.647,1.131
3.379,-12.424,-5.009,1.029,0.833,0.225
3.425,-12.66,-4.99,0.692,0.336,-0.544
4.936,-14.435,-5.043,0.09,-0.176,-0.864
6.076,-16.064,-4.46,-0.429,-1.892,-1.028
5.89,-16.969,-3.035,-1.035,-3.864,-1.276
5.455,-15.916,-0.931,-2.196,-5.744,-1.849
5.507,-9.549,1.922,-3.724,-7.091,-2.406
2.233,1.465,1.917,-4.662,-8.261,-2.041
-2.034,8.101,1.904,-3.824,-5.652,-2.061
-3.815,14.303,0.868,-2.206,-2.336,-1.586
-5.058,15.686,1.761,0.031,1.157,-0.229
-3.714,8.42,2.327,2.081,4.649,1.551
0.933,-0.249,3.411,3.455,7.487,2.11
5.129,-5.32,2.665,3.232,6.366,3.054
5.914,-11.657,1.869,2.423,4.665,3.338
6.535,-14.78,-1.012,1.453,3.591,2.724
5.144,-12.812,-4.111,0.941,2.275,1.509
4.188,-13.121,-4.443,0.656,1.046,0.605
4.269,-13.872,-4.973,0.078,0.479,-0.23
6.575,-15.058,-5.576,-0.532,-0.288,-0.707
7.538,-16.299,-4.626,-0.897,-2.665,-0.939
6.54,-16.945,-2.001,-1.456,-4.842,-1.352
5.102,-13.96,0.358,-2.683,-6.451,-2.094
4.123,-5.745,2.244,-4.085,-7.681,-2.284
0.125,1.972,2.233,-3.864,-7.561,-1.941
-2.239,8.895,1.952,-2.707,-4.11,-1.46
-1.933,12.354,2.351,-1.218,-0.617,0.156
0.695,9.365,1.656,0.399,2.875,2.074
2.205,2.517,0.57,2.247,5.285,3.085
4.976,-4.028,0.945,2.676,6.356,3.39
6.248,-9.805,-0.151,2.059,5.467,3.175
7.487,-13.391,-3.211,1.305,4.53,2.009
6.866,-13.629,-5.028,1.026,2.905,0.83
6.996,-14.63,-4.949,0.626,1.997,0.109
8.335,-15.272,-4.336,0.014,1.081,-0.299
10.179,-16.42,-4.042,-0.707,-0.741,-0.321
9.702,-16.867,-2.827,-1.264,-3.112,-0.347
8.111,-15.592,-0.692,-1.941,-4.863,-0.796
7.356,-11.878,1.535,-2.925,-6.365,-1.746
7.099,-3.957,2.514,-3.833,-7.664,-2.54
2.071,3.388,2.63,-3.617,-8.445,-2.681
-1.642,9.356,3.059,-2.302,-5.136,-2.439
-2.378,11.95,4.639,-0.827,-1.761,-1.095
1.747,8.718,3.943,0.462,1.731,0.794
2.575,3.353,2.322,1.707,3.557,2.503
4.448,-2.5,1.361,2.34,5.22,3.29
5.895,-7.722,-0.623,1.98,4.641,3.625
5.588,-11.202,-3.939,1.603,4.137,2.865
1.69,-10.889,-5.634,1.816,3.375,1.78
1.551,-12.578,-4.919,1.945,3.571,0.602
4.209,-13.427,-4.258,1.368,3.327,-0.174
6.936,-14.894,-4.068,0.615,1.74,-0.616
9.427,-16.482,-4.474,-0.103,-0.13,-0.771
10.311,-17.625,-3.449,-0.557,-2.312,-0.841
9.715,-16.769,-0.689,-1.16,-4.334,-1.29
9.345,-12.823,2.604,-2.101,-5.753,-2.317
7.469,-5.372,6.388,-3.255,-7.079,-2.633
-0.164,1.11,6.082,-3.327,-7.32,-2.88
-3.391,6.241,6.833,-2.649,-4.376,-2.626
-4.39,9.965,5.444,-1.404,-0.883,-1.516
-3.941,9.167,4.959,0.055,2.609,0.667
-1.224,2.226,2.611,1.377,6.102,1.736
6.485,-3.039,3.244,1.724,7.972,2.76
8.412,-7.565,1.081,1.347,6.584,3.206
7.972,-12.228,-0.586,0.831,5.389,2.952
7.117,-14.58,-2.71,0.586,4.483,1.83
6.332,-12.624,-3.694,0.681,3.358,0.859
6.184,-12.088,-3.467,0.767,2.303,0.032
7.515,-12.277,-2.7,0.568,1.78,-0.481
9.785,-13.478,-2.565,0.185,0.813,-0.697
11.195,-14.786,-2.765,-0.023,-0.312,-0.621
11.703,-16.586,-1.508,-0.076,-1.573,-0.47
12.002,-16.163,1.453,-0.036,-3.266,-0.732
11.118,-14.35,6.784,-0.54,-4.847,-1.805
8.5,-6.189,12.931,-2.002,-6.178,-2.499
-0.637,1.406,11.307,-2.327,-7.639,-2.764
-5.31,6.965,13.721,-1.565,-5.254,-2.405
-4.833,10.934,15.275,-1.01,-1.761,-0.718
-2.335,10.229,11.445,-0.533,1.731,1.431
-0.296,3.941,4.848,1.13,3.958,3.06
6.346,-4.069,5.28,1.905,5.509,3.875
7.839,-9.468,-0.005,1.612,4.023,3.758
5.069,-14.481,-4.924,1.409,2.923,2.361
2.057,-14.585,-5.822,1.645,1.669,1.028
1.638,-13.959,-4.102,1.521,1.498,-0.073
2.677,-12.106,-2.441,1.11,1.601,-0.734
4.698,-12.801,-0.945,0.558,1.181,-1.015
6.892,-15.049,-1.007,-0.224,-0.123,-1.016
7.196,-17.806,-0.691,-0.796,-2.361,-0.89
6.197,-18.664,-0.291,-1.498,-4.417,-1.29
7.102,-13.567,0.469,-2.519,-6.071,-2.379
7.273,-3.929,2.076,-3.847,-7.657,-2.646
1.535,3.56,2.403,-3.754,-7.923,-2.82
-0.881,10.022,1.675,-2.898,-4.431,-2.552
-2.134,14.673,2.007,-1.436,-0.938,-1.337
-1.773,11.809,4.787,-0.19,2.554,0.994
1.065,3.207,4.78,0.856,5.822,2.126
6.783,-1.989,4.386,1.052,7.348,3.252
8.96,-6.505,3.171,0.781,5.856,3.727
9.937,-12.011,0.829,0.314,4.592,3.253
8.886,-14.462,-3.208,0.173,3.499,2.002
6.728,-13.614,-4.339,0.501,2.22,1.119
6.382,-13.034,-3.547,0.439,1.414,0.295
7.348,-14.011,-2.649,0.071,0.74,-0.202
9.059,-15.051,-2.62,-0.47,-0.397,-0.335
9.445,-16.525,-1.451,-0.713,-2.222,-0.345
8.108,-16.987,0.96,-1.069,-4.136,-0.843
7.227,-13.947,2.498,-1.915,-5.679,-2.124
7.367,-5.925,6.468,-3.196,-7.006,-3.03
0.124,1.91,6.438,-3.296,-8.098,-3.358
-4.56,7.518,7.781,-2.365,-5.179,-3.03
-4.688,11.825,10.308,-1.466,-1.761,-1.093
-2.763,8.821,12.466,-0.754,1.731,1.032
-0.839,2.415,9.726,0.241,4.557,2.48
7.143,-3.796,9.689,0.591,6.104,3.416
10.331,-8.537,6.543,0.148,4.072,3.528
10.412,-12.931,1.353,-0.096,3.047,2.222
9.275,-12.664,-2.22,0.308,1.884,1.308
7.679,-12.912,-3.045,0.808,1.008,0.613
7.362,-13.335,-2.285,0.728,0.928,-0.032
10.269,-14.384,-2.631,0.175,0.592,-0.359
13.332,-16.697,-3.207,-0.081,-1.677,-0.268
11.978,-18.166,-0.983,-0.15,-4.006,-0.584
11.034,-16.107,2.085,-0.958,-5.956,-1.789
10.603,-6.471,4.922,-2.351,-7.422,-2.717
3.911,-0.609,6.675,-2.263,-7.387,-3.311
0.993,5.742,6.363,-1.5,-4.693,-3.134
-3.313,13.753,6.525,-0.649,-1.2,-2.117
-1.334,13.201,10.597,0.232,2.292,0.682
1.333,3.908,8.246,1.328,5.046,2.142
7.417,-0.551,6.608,1.603,5.625,3.438
5.531,-5.314,6.622,1.377,4.221,3.401
9.841,-12.6,4.365,0.832,4.027,2.516
8.976,-13.712,-2.087,0.945,3.226,0.645
7.753,-13.059,-1.692,1.27,2.528,-0.116
8.031,-12.754,0.465,1.051,2.196,-0.761
11.879,-12.49,1.741,0.282,1.935,-0.802
14.916,-13.054,0.676,-0.403,-0.272,-0.255
15.361,-14.932,0.406,-0.539,-2.566,0.587
12.727,-15.169,2.255,-0.268,-4.607,0.879
11.335,-13.766,4.119,-0.462,-5.626,0.039
11.726,-7.537,6.286,-0.826,-6.855,-1.602
7.49,1.261,8.662,-1.606,-7.946,-2.151
0.22,7.624,8.433,-0.866,-4.852,-2.469
-2.627,12.994,8.585,-0.066,-1.374,-1.862
-3.794,10.802,9.515,0.661,1.731,0.07
-2.047,5.241,8.926,0.929,5.224,2.142
0.572,-2.894,6.505,2.073,6.594,2.974
2.621,-8.566,5.304,1.651,4.507,2.831
5.295,-14.0,3.214,0.966,4.507,1.436
9.956,-12.212,0.604,0.783,3.954,-0.291
8.448,-12.442,-0.303,1.06,2.118,-1.292
10.283,-12.272,0.745,0.801,2.097,-1.861
16.158,-11.93,1.706,0.158,1.527,-1.617
18.503,-13.666,0.878,-0.344,-1.39,-0.472
14.917,-15.75,0.452,-0.615,-3.857,0.144
12.677,-13.814,1.384,-0.637,-4.55,-0.221
12.39,-8.667,2.957,-0.565,-5.899,-1.432
11.945,-2.661,6.697,-0.805,-6.734,-2.725
4.689,3.812,8.714,-0.814,-7.31,-3.718
2.879,9.326,7.541,0.078,-4.29,-3.154
-1.911,12.489,9.841,0.815,-1.761,-1.636
0.059,7.658,16.258,0.651,1.731,0.447
1.464,2.902,13.545,0.688,3.966,1.767
8.497,-1.675,11.092,0.965,5.574,2.798
9.569,-6.583,10.966,0.523,3.84,2.325
15.039,-11.864,7.34,0.117,3.315,1.442
12.768,-12.61,-0.469,0.41,2.186,0.46
11.529,-13.336,-1.257,0.589,1.779,0.161
11.798,-13.859,-0.544,0.203,1.491,-0.05
14.13,-15.619,-0.372,-0.537,0.758,0.149
15.197,-17.738,-0.02,-0.994,-1.557,0.656
13.136,-16.867,1.896,-0.975,-3.484,0.585
11.827,-13.186,3.391,-0.808,-5.022,-0.491
12.657,-5.974,6.422,-0.82,-6.343,-1.863
8.551,0.553,10.268,-0.998,-7.368,-2.529
3.068,6.589,9.263,-0.436,-5.158,-2.659
0.556,10.246,9.224,0.074,-2.102,-1.503
2.423,9.501,11.302,0.02,1.101,1.019
1.405,3.053,7.576,-0.059,3.192,2.612
3.876,-2.013,2.862,0.416,5.706,3.217
8.414,-6.208,1.876,0.223,5.389,2.99
11.837,-10.208,-0.536,-0.039,4.255,1.929
9.451,-12.292,-3.662,0.323,3.362,0.285
9.932,-11.798,-2.827,0.792,3.823,-0.253
12.872,-11.464,-1.24,0.803,2.926,-0.48
16.134,-11.688,0.208,0.253,1.476,-0.123
17.665,-12.609,0.13,-0.382,-0.727,0.748
15.58,-15.054,0.943,-0.671,-3.327,1.347
12.027,-15.709,2.22,-0.952,-5.574,0.708
9.675,-11.729,2.658,-1.562,-7.19,-0.816
7.544,-3.061,4.821,-2.584,-8.287,-2.203
0.723,3.34,5.881,-2.335,-8.441,-3.087
-3.268,10.006,4.922,-1.257,-4.949,-3.39
-4.08,11.996,8.983,-0.379,-1.761,-1.579
1.671,6.474,10.875,0.028,1.731,0.745
2.052,-0.97,7.001,1.288,2.929,2.73
5.338,-7.699,4.757,1.42,3.327,3.824
7.104,-12.539,2.945,0.522,0.974,4.334
6.29,-14.387,-3.456,-0.121,0.019,3.567
-0.813,-10.994,-6.323,0.124,-0.636,2.708
-3.186,-9.684,-4.612,0.4,0.165,1.625
-3.256,-6.809,-3.565,0.546,1.594,0.38
1.109,-8.302,-4.003,0.606,2.386,-0.597
4.908,-12.342,-5.007,0.44,0.569,-1.104
4.418,-15.908,-4.854,0.128,-1.877,-1.445
4.2,-16.952,-3.855,-0.587,-3.205,-2.163
5.345,-14.144,-2.565,-1.866,-5.033,-3.325
5.462,-4.855,-1.37,-3.203,-6.964,-3.687
0.043,3.395,1.148,-2.9,-7.003,-3.761
-2.273,10.204,1.86,-1.809,-3.902,-2.993
-4.844,11.398,3.75,-0.628,-1.081,-1.073
0.661,6.396,5.756,0.249,2.412,1.183
2.255,-1.128,5.483,1.201,3.543,2.884
6.677,-5.813,4.331,1.204,2.862,4.193
3.586,-11.465,4.477,0.873,-0.63,3.982
1.683,-12.578,2.331,0.667,-0.63,3.072
-3.767,-10.576,-0.751,1.16,-0.63,2.18
-6.831,-9.803,-0.0,1.583,-0.294,0.908
-7.748,-9.41,-0.051,1.257,0.879,-0.698
-2.432,-9.561,-2.149,0.295,1.716,-1.344
1.062,-13.986,-4.951,-0.757,-1.244,-1.914
-0.373,-16.584,-4.716,-1.984,-4.106,-2.422
0.12,-14.239,-3.227,-3.785,-5.212,-3.191
0.936,-5.224,-5.077,-4.913,-6.385,-3.18
-0.419,-0.044,-2.997,-4.6,-5.596,-3.339
-0.901,7.474,-2.188,-3.424,-3.441,-2.481
-2.936,13.238,0.566,-1.72,-0.579,-1.001
2.81,9.126,1.354,-0.27,2.552,1.418
4.956,1.136,1.943,0.829,3.91,2.958
6.764,-2.091,-0.424,1.356,2.639,4.518
3.523,-6.272,-0.731,1.524,0.845,4.253
3.419,-10.276,-3.969,1.338,0.024,3.537
-3.527,-9.225,-6.023,1.796,-0.664,2.286
-6.074,-9.425,-4.127,2.152,0.19,1.182
-6.094,-8.854,-2.287,1.836,1.722,0.014
-1.86,-7.852,-1.495,1.133,2.816,-0.474
1.353,-9.497,-2.596,0.46,1.83,-0.914
2.232,-12.306,-4.196,-0.157,-0.476,-1.132
-0.338,-15.646,-4.017,-0.953,-2.688,-1.245
-0.935,-17.337,-3.856,-2.069,-3.808,-1.269
-0.327,-13.879,-3.818,-3.782,-5.591,-1.721
0.614,-4.885,-1.769,-5.456,-7.276,-1.534
-4.221,3.344,-1.839,-5.398,-6.821,-1.636
-5.074,10.425,-1.287,-3.971,-3.329,-1.589
-3.146,14.435,-0.704,-1.991,-0.604,-0.528
-2.288,10.029,-0.611,0.116,2.685,1.045
-1.523,1.671,-2.005,1.826,5.611,2.087
4.636,-3.18,-2.419,2.117,5.79,3.248
5.64,-6.883,-3.961,1.767,2.806,4.012
1.532,-9.497,-4.953,1.149,1.428,3.457
-1.059,-7.792,-4.966,0.908,0.303,2.537
-3.681,-5.768,-4.408,1.105,-0.244,1.257
-4.774,-6.377,-3.643,1.15,1.033,-0.048
-1.406,-9.171,-4.877,0.656,2.352,-0.988
2.624,-12.217,-6.591,0.11,0.793,-1.447
2.683,-14.798,-6.192,-0.407,-1.425,-1.707
2.69,-16.295,-5.459,-1.304,-2.862,-2.039
3.48,-13.661,-3.47,-2.647,-4.78,-2.726
2.926,-4.689,-1.691,-4.171,-6.607,-3.164
-1.404,2.906,-0.871,-3.914,-5.822,-3.276
-1.204,9.56,-0.932,-2.442,-2.494,-2.436
-3.517,12.74,1.454,-1.004,0.056,-0.819
1.051,8.517,3.371,-0.024,3.057,1.04
4.949,2.341,2.793,1.18,4.395,2.589
7.443,-2.219,1.864,1.34,3.269,3.704
4.86,-7.301,0.224,0.619,2.026,3.348
7.787,-10.628,-3.546,0.255,1.754,2.455
4.253,-9.308,-7.261,0.741,0.451,1.746
0.823,-10.723,-7.539,1.193,0.381,1.041
2.225,-12.542,-6.79,0.931,1.503,0.255
6.455,-14.336,-6.563,0.4,0.267,-0.0
6.718,-15.217,-5.451,-0.088,-2.268,-0.455
5.288,-14.95,-2.918,-0.931,-4.243,-1.397
5.59,-9.357,-0.955,-2.158,-5.511,-2.801
3.701,-0.202,-0.733,-3.338,-6.849,-3.128
-0.661,5.347,1.826,-2.912,-4.944,-3.438
-2.201,10.606,1.527,-2.11,-2.137,-2.569
-2.276,13.905,1.734,-0.87,1.141,-0.694
1.076,7.915,1.275,0.232,4.633,1.736
3.878,0.223,0.683,1.689,6.659,3.096
7.07,-4.045,-1.566,1.829,5.384,4.334
6.507,-9.006,-2.514,1.727,3.762,4.282
4.064,-13.119,-5.184,1.352,2.906,3.264
0.263,-12.709,-6.698,1.499,1.79,2.067
-1.028,-13.64,-5.797,1.276,1.294,0.852
-0.314,-13.963,-5.504,0.751,1.028,-0.2
1.754,-14.703,-5.549,-0.018,-0.076,-0.888
3.132,-16.133,-4.341,-0.621,-2.16,-1.392
3.261,-15.983,-1.897,-1.538,-4.062,-2.02
5.131,-10.486,0.55,-2.917,-5.592,-3.068
4.405,-1.583,2.898,-4.436,-6.953,-2.585
-1.816,5.898,4.496,-3.627,-5.512,-2.698
-2.529,14.031,4.217,-1.958,-2.573,-2.087
-2.745,15.93,5.011,-0.024,0.445,-0.53
-2.04,9.69,3.527,1.917,3.938,1.918
-0.963,1.851,0.957,4.037,5.729,2.716
3.09,-4.622,-0.935,3.926,4.77,3.856
1.223,-10.839,-2.022,3.036,3.44,3.935
0.215,-12.574,-4.531,2.125,2.791,2.979
-1.127,-11.118,-5.367,1.651,1.328,1.667
-1.815,-11.785,-4.811,1.142,0.583,0.575
-0.569,-11.905,-4.248,0.584,0.138,-0.336
0.688,-13.352,-3.649,-0.106,-1.203,-0.915
0.47,-14.591,-3.304,-0.884,-3.261,-1.332
-0.706,-15.457,-2.083,-1.94,-5.127,-1.974
-0.511,-12.406,-0.742,-3.685,-6.173,-2.752
0.519,-2.152,1.196,-5.351,-6.975,-2.274
-4.324,5.021,1.156,-4.863,-7.056,-2.432
-6.841,12.749,3.55,-3.111,-4.348,-1.796
-2.684,14.109,6.24,-1.298,-1.02,0.708
-0.867,12.422,5.024,0.58,0.67,2.798
-2.569,4.345,2.276,2.891,1.896,3.525
0.779,-1.93,2.167,3.283,3.188,4.842
0.76,-8.228,-1.578,2.546,2.568,5.041
-3.981,-8.514,-5.288,2.102,1.949,3.064
-4.574,-9.568,-5.415,2.181,2.029,1.667
-3.748,-11.409,-4.151,1.679,1.98,0.53
-0.87,-11.373,-4.671,0.968,1.428,-0.327
1.398,-12.731,-4.122,0.354,-0.357,-0.774
0.643,-14.361,-4.364,-0.261,-2.358,-0.991
-0.997,-15.834,-2.846,-0.994,-3.833,-1.596
-0.364,-15.148,-1.512,-2.333,-5.01,-2.388
0.252,-8.611,2.411,-3.993,-6.492,-2.732
-0.231,0.807,1.714,-5.067,-7.579,-2.248
-6.692,7.143,2.653,-4.176,-4.96,-2.279
-4.759,13.2,4.605,-2.43,-1.761,-0.902
-1.83,13.217,5.213,-0.683,1.731,1.142
-0.314,8.165,1.464,1.38,3.472,2.499
-0.005,0.01,1.664,3.087,5.129,2.786
6.185,-5.892,0.414,2.784,3.468,3.591
2.8,-10.916,-3.444,1.821,2.247,3.013
-0.821,-11.596,-5.989,1.458,0.845,1.694
-2.373,-12.663,-5.935,1.212,1.003,0.643
-1.338,-12.998,-5.491,0.652,0.982,-0.041
0.201,-12.69,-5.741,0.212,0.505,-0.463
1.276,-13.529,-5.835,-0.313,-1.186,-0.687
0.079,-15.707,-4.742,-0.977,-3.009,-0.85
-1.078,-16.142,-2.759,-2.185,-4.853,-1.319
-0.862,-11.162,-0.922,-3.862,-6.489,-1.771
-1.189,-0.966,-1.018,-5.37,-7.844,-1.536
-5.506,4.466,-0.906,-5.008,-6.125,-1.854
-4.957,12.541,-0.533,-3.576,-2.9,-1.366
-2.638,16.824,-0.073,-1.545,0.537,0.156
0.279,12.265,-1.065,0.465,4.03,1.872
1.679,3.249,-1.024,2.3,6.473,2.631
6.343,-1.387,-1.304,2.624,6.103,3.792
6.514,-7.229,-3.123,2.148,4.406,3.977
3.923,-11.444,-5.566,1.582,3.005,3.061
1.326,-11.519,-5.995,1.49,1.793,1.778
0.737,-12.199,-4.79,1.271,1.194,0.804
1.499,-11.734,-4.303,0.787,1.098,0.105
2.91,-11.99,-3.974,0.358,0.476,-0.284
3.566,-13.045,-4.276,-0.165,-0.746,-0.348
2.373,-14.9,-4.229,-0.655,-2.349,-0.487
0.937,-16.144,-3.741,-1.451,-4.172,-1.021
0.206,-14.783,-1.936,-2.746,-6.005,-1.645
0.37,-7.082,0.383,-4.462,-7.178,-1.956
-2.242,1.927,-1.743,-4.904,-8.048,-1.721
-4.746,9.625,-0.873,-3.567,-5.233,-1.6
-4.145,15.705,-0.232,-1.558,-1.761,-0.376
-1.835,13.741,0.766,0.377,1.731,1.592
-0.256,7.286,-1.521,2.294,4.082,2.782
3.075,-0.395,0.708,3.317,5.381,3.359
3.63,-6.64,-0.987,2.695,3.213,3.652
2.476,-12.022,-3.229,1.811,2.18,2.957
0.915,-11.67,-5.74,1.471,0.822,1.417
-0.366,-12.137,-5.092,1.442,0.461,0.443
0.338,-11.818,-3.785,1.178,0.916,-0.338
3.63,-11.051,-2.502,0.765,1.354,-0.479
5.56,-10.406,-1.578,0.379,0.389,-0.378
5.356,-9.599,-1.525,0.084,0.095,-0.122
4.946,-9.537,-1.297,-0.125,0.314,0.026
4.677,-9.98,-4.055,-0.369,0.128,0.09
3.273,-14.107,-4.612,-0.561,-1.635,0.014
-1.467,-16.471,-3.35,-1.638,-3.128,-0.813
-0.225,-12.295,-1.441,-3.271,-4.969,-1.863
0.228,-1.298,-2.371,-4.95,-7.178,-1.782
-5.766,3.981,-1.836,-4.687,-6.374,-2.014
-3.693,13.053,-0.536,-3.318,-2.881,-1.725
2.772,18.385,-0.364,-1.492,0.611,0.171
2.523,14.206,-1.243,0.414,4.104,2.361
2.867,3.114,-0.808,2.187,7.017,3.125
8.432,-2.014,-0.151,2.236,6.227,3.95
5.413,-7.806,-3.031,1.387,4.907,3.858
2.7,-11.492,-5.732,1.102,3.793,2.554
2.97,-12.445,-6.911,1.105,2.653,1.126
3.556,-13.212,-7.068,1.032,1.336,0.151
4.668,-13.935,-6.55,0.674,0.979,-0.438
7.298,-14.634,-5.754,0.095,-0.543,-0.558
7.624,-15.376,-4.098,-0.651,-2.921,-0.542
4.13,-16.103,-2.155,-1.797,-5.274,-0.877
1.854,-12.722,-1.377,-3.1,-6.87,-1.469
0.851,-4.645,0.161,-4.671,-8.095,-1.883
-4.022,2.192,-1.589,-4.653,-7.798,-2.088
-4.985,9.075,-1.033,-3.183,-4.306,-1.674
-1.698,12.994,0.253,-1.633,-0.813,0.097
1.937,10.633,1.472,-0.486,2.679,1.694
3.858,3.982,0.284,0.983,5.132,2.778
8.593,-1.198,1.895,1.303,6.09,3.408
9.026,-6.87,-0.727,0.444,4.856,3.214
9.149,-10.164,-4.857,0.205,3.881,1.929
8.611,-11.314,-7.767,0.581,2.35,0.931
9.11,-12.788,-8.921,0.769,1.148,0.28
10.987,-14.83,-9.793,0.566,0.022,-0.103
12.884,-15.922,-8.091,0.236,-2.236,-0.251
10.458,-15.761,-5.583,-0.484,-4.754,-0.87
9.209,-11.634,-3.984,-1.262,-6.715,-1.886
7.794,-6.171,-0.265,-2.524,-7.966,-2.837
0.969,2.411,-0.212,-2.562,-7.975,-2.841
-1.456,8.731,1.511,-1.507,-4.483,-1.975
2.738,9.864,2.397,-1.013,-0.99,0.253
3.888,8.095,1.453,-0.548,1.566,2.424
2.929,4.182,-2.431,0.953,3.076,4.177
5.646,-2.925,-2.009,1.414,4.403,4.481
6.587,-7.787,-4.668,0.772,3.683,3.729
4.785,-8.067,-7.372,0.956,2.685,2.064
4.604,-9.637,-7.465,1.295,1.956,0.931
6.565,-10.947,-7.371,1.199,1.595,0.164
9.514,-12.485,-7.831,0.925,0.031,-0.085
9.322,-14.765,-7.161,0.392,-2.741,-0.346
5.535,-16.097,-5.243,-0.541,-5.236,-1.015
3.538,-13.895,-3.38,-1.739,-6.934,-1.957
1.891,-7.284,-0.184,-3.395,-8.083,-2.773
-2.985,0.827,0.052,-3.42,-6.899,-2.957
-3.423,7.086,1.642,-2.265,-3.407,-1.912
1.918,8.999,2.687,-1.695,0.086,0.292
4.554,7.744,1.543,-0.952,2.928,2.304
4.698,2.727,-0.884,0.623,4.724,3.839
7.231,-3.716,-0.175,0.883,5.623,4.25
8.548,-8.097,-1.611,0.292,5.168,3.412
8.017,-9.412,-4.095,0.648,4.334,1.87
8.753,-11.308,-3.781,0.997,3.121,0.847
10.463,-12.717,-3.466,0.865,2.199,0.243
13.003,-14.091,-2.639,0.48,0.24,0.117
13.106,-15.869,-2.359,-0.013,-2.781,-0.0
10.372,-16.458,-1.192,-0.835,-5.44,-0.476
7.271,-12.484,-0.391,-1.854,-7.198,-1.536
4.736,-6.867,2.117,-3.01,-8.073,-2.264
-0.808,-0.904,0.862,-3.126,-8.403,-2.599
-3.996,5.533,2.147,-2.126,-4.928,-2.149
-2.003,7.936,2.675,-1.209,-1.435,-0.209
-0.673,6.252,1.212,-0.349,1.667,1.855
0.487,2.04,-1.547,0.966,4.108,3.228
4.467,-2.386,-0.9,1.317,6.026,3.925
6.449,-6.544,-2.904,0.635,5.146,3.907
4.867,-7.924,-4.211,0.535,4.719,2.5
5.052,-9.197,-3.311,0.868,4.466,1.307
7.665,-11.16,-2.917,0.883,3.812,0.375
10.275,-13.155,-3.223,0.508,2.524,-0.053
12.562,-14.636,-3.927,0.136,0.534,-0.248
12.257,-16.15,-4.273,-0.291,-2.459,-0.523
9.651,-15.349,-4.001,-1.024,-5.309,-1.644
7.837,-8.971,-1.27,-2.061,-7.096,-3.061
2.137,-1.339,0.469,-2.575,-8.052,-4.107
0.677,0.892,0.76,-2.236,-5.817,-3.96
0.046,6.659,0.851,-1.769,-2.739,-2.461
2.128,9.905,-1.497,-0.836,0.45,0.381
-0.1,6.784,-5.638,0.46,3.519,3.207
3.407,1.813,-7.91,1.412,6.237,5.119
2.65,1.577,-8.641,1.605,5.686,5.554
2.471,-2.37,-9.169,1.754,5.623,4.65
1.583,-5.979,-6.834,1.718,5.926,3.045
4.215,-7.319,-4.493,1.747,5.771,1.541
6.666,-7.771,-2.348,1.733,4.983,0.441
10.204,-8.462,-1.246,1.435,3.908,-0.195
14.962,-9.132,-1.949,1.006,1.667,-0.323
16.405,-10.373,-2.931,0.736,-1.641,-0.222
14.511,-12.608,-2.872,0.292,-4.554,-0.435
11.232,-12.807,-1.925,-0.526,-6.484,-1.228
8.659,-10.965,0.184,-1.814,-7.716,-2.144
4.522,-3.633,1.175,-3.304,-8.562,-2.516
-2.366,3.442,0.807,-2.789,-6.057,-2.728
-2.312,8.817,1.639,-1.406,-2.565,-1.533
-0.385,10.058,2.35,-0.325,0.928,0.672
1.271,8.579,0.26,1.004,3.909,2.616
1.438,1.701,-0.6,2.615,6.061,3.484
5.965,-4.569,-0.743,2.262,6.333,3.735
7.118,-8.368,-1.768,1.32,5.747,2.656
7.9,-9.353,-3.409,0.974,4.58,1.077
9.179,-9.622,-2.73,0.843,3.215,0.022
11.977,-9.93,-2.199,0.636,2.28,-0.338
15.387,-10.561,-2.65,0.368,0.218,-0.089
16.706,-11.749,-3.095,0.313,-2.688,0.483
13.83,-13.778,-2.641,0.288,-5.013,0.424
9.216,-14.032,-2.264,-0.371,-6.617,-0.537
9.196,-9.704,0.532,-1.519,-7.834,-1.901
4.989,-1.452,1.59,-2.687,-8.733,-2.497
-2.832,3.683,1.926,-2.26,-5.241,-2.788
-0.213,9.324,4.91,-1.453,-1.748,-1.146
4.066,10.572,4.735,-0.945,1.731,0.976
2.186,7.153,1.935,0.142,4.281,3.074
3.143,-0.745,0.85,1.395,6.405,3.802
6.923,-5.087,-0.25,0.993,5.91,3.8
6.493,-9.126,-3.445,0.48,5.793,2.18
5.837,-9.991,-2.441,0.787,5.042,0.701
7.93,-10.475,-1.644,0.811,4.629,-0.452
10.71,-10.298,0.049,0.544,4.208,-0.944
14.744,-10.053,0.384,0.046,2.474,-0.801
17.072,-10.878,-1.993,-0.453,-0.22,-0.263
17.433,-12.52,-3.902,-0.548,-2.961,0.342
14.169,-14.67,-2.294,-0.598,-5.099,0.187
10.764,-13.131,-2.763,-1.118,-6.801,-0.992
9.525,-9.851,0.645,-2.42,-8.064,-2.22
2.605,-0.272,-0.365,-3.215,-8.746,-2.677
-2.494,4.233,1.375,-2.661,-5.254,-2.867
-2.576,10.235,3.277,-2.061,-1.761,-1.576
4.24,8.828,5.38,-1.996,1.731,0.589
4.373,6.902,1.546,-0.943,3.668,2.485
7.541,-1.216,2.43,-0.211,5.821,3.159
10.214,-4.248,-0.356,-0.771,4.844,3.284
12.196,-8.036,-4.611,-1.139,4.173,2.276
8.113,-7.322,-6.634,-0.367,2.998,1.218
8.847,-8.447,-5.953,0.215,3.044,0.339
11.019,-9.257,-4.509,0.402,2.645,-0.11
13.411,-9.672,-3.861,0.224,1.643,-0.224
17.198,-10.364,-5.235,0.114,-0.464,0.075
16.197,-12.563,-5.259,0.058,-2.782,0.418
11.336,-14.865,-3.3,-0.231,-4.764,-0.268
11.287,-10.294,-3.187,-0.741,-6.519,-1.985
7.053,-1.104,-0.58,-2.257,-8.032,-3.164
-2.202,1.926,1.684,-1.832,-5.254,-3.685
-3.068,7.191,5.173,-1.412,-1.761,-2.865
3.451,11.349,5.488,-1.674,1.731,-0.704
3.152,8.846,5.313,-1.671,4.267,1.982
5.785,0.321,1.789,-0.201,5.979,3.827
8.777,-2.952,-0.185,-0.466,4.282,4.584
8.485,-6.996,-4.941,-0.621,3.202,3.629
4.733,-9.032,-7.162,0.24,2.141,2.092
4.311,-10.908,-6.437,1.029,1.877,1.065
4.77,-12.062,-4.611,1.283,1.819,0.359
7.55,-12.44,-4.273,1.009,1.331,-0.046
9.394,-13.887,-3.735,0.472,-1.081,-0.06
6.783,-16.52,-2.174,-0.405,-3.513,-0.396
4.298,-17.239,-1.284,-1.852,-5.54,-1.163
6.365,-12.079,0.706,-3.626,-7.195,-2.032
1.744,-0.033,0.245,-4.906,-8.502,-2.003
-6.374,6.13,2.074,-3.909,-5.01,-2.041
-3.532,11.687,10.619,-3.085,-1.517,-0.206
3.093,13.414,11.38,-2.694,1.731,1.343
1.844,9.37,9.065,-1.498,4.041,3.07
5.309,-1.753,9.179,-0.127,5.659,3.573
11.576,-7.07,7.052,-0.798,4.207,3.654
12.773,-9.848,-3.287,-0.913,3.494,2.128
8.937,-10.431,-4.785,0.024,2.115,1.217
8.65,-10.465,-4.622,0.52,1.682,0.162
10.3,-10.683,-3.117,0.437,1.611,-0.488
13.028,-10.358,-2.833,0.129,0.983,-0.545
15.227,-11.809,-2.765,-0.16,-1.286,-0.269
14.147,-13.775,-2.113,-0.316,-3.4,-0.232
10.457,-15.266,0.211,-0.967,-5.277,-1.035
10.436,-10.835,2.129,-1.932,-6.823,-2.088
6.515,0.295,3.135,-3.419,-8.236,-2.455
-4.45,5.382,5.037,-2.963,-5.254,-3.08
-3.165,10.665,8.67,-2.091,-1.761,-1.916
2.206,14.493,7.475,-1.651,1.731,0.241
0.39,10.757,5.524,-0.725,4.519,2.291
2.08,-0.345,4.45,0.862,6.827,3.131
8.604,-4.809,2.224,0.552,5.809,3.779
7.578,-8.638,-3.032,0.011,4.745,2.604
5.203,-11.376,-3.886,0.565,3.358,1.195
7.026,-12.064,-3.136,0.906,2.387,0.204
8.416,-11.856,-1.254,0.955,1.79,-0.225
10.757,-11.612,-0.657,0.678,0.788,-0.184
12.58,-12.478,-1.844,0.222,-0.857,0.16
10.561,-15.092,-1.083,-0.018,-2.963,0.294
6.928,-16.214,-0.356,-0.548,-4.589,-0.795
9.662,-11.026,1.243,-1.398,-6.3,-2.634
4.795,1.394,1.518,-2.37,-7.773,-3.248
-1.453,5.204,1.988,-1.694,-5.064,-2.958
1.825,13.406,4.019,-0.966,-1.571,-1.258
4.96,16.463,2.872,-1.033,1.731,1.266
2.211,12.537,-0.09,-0.705,4.774,4.083
5.391,1.025,-3.083,0.134,6.627,5.284
7.455,-1.778,-4.545,-0.199,5.486,5.132
5.282,-7.0,-8.289,-0.653,5.148,3.325
7.251,-7.741,-8.459,0.017,4.271,1.866
7.947,-8.073,-8.129,0.623,2.691,0.827
9.767,-7.95,-5.99,0.896,2.526,0.11
14.068,-7.674,-4.283,0.67,1.426,-0.168
17.101,-8.066,-4.968,0.504,-1.474,0.122
13.615,-9.983,-5.321,0.486,-4.089,-0.05
10.834,-11.714,-4.36,0.301,-5.552,-0.929
9.803,-9.74,-3.171,-0.368,-7.241,-2.463
6.072,-4.485,1.561,-2.068,-8.492,-3.445
-2.35,0.921,2.147,-2.32,-7.585,-3.798
-3.044,6.224,4.774,-1.62,-4.092,-2.867
-0.365,9.982,4.814,-1.237,-0.6,-0.797
-0.675,9.135,3.662,-0.259,2.41,1.66
0.739,3.274,-0.822,1.805,4.753,3.196
5.353,-2.025,-0.898,2.308,6.091,3.605
6.519,-6.541,-3.248,1.866,5.56,2.793
6.528,-9.738,-4.106,1.956,4.633,1.441
9.262,-12.39,-3.665,1.808,3.374,0.508
10.861,-13.284,-3.534,1.446,2.233,0.124
13.832,-14.287,-3.255,0.984,0.728,0.197
14.388,-15.282,-2.499,0.559,-1.916,0.288
12.332,-14.986,-0.9,-0.001,-4.481,-0.379
11.461,-10.233,0.972,-0.682,-6.233,-1.841
9.195,-1.467,3.966,-2.082,-7.434,-2.779
-0.35,4.61,4.434,-1.602,-5.061,-3.104
1.503,9.775,8.871,-0.872,-1.886,-1.749
3.574,11.94,7.72,-0.907,1.521,0.059
2.346,9.082,5.556,-0.399,3.879,2.296
1.466,1.245,2.294,1.098,5.862,3.302
7.339,-3.518,2.527,0.889,5.855,2.997
6.78,-6.38,-2.194,0.528,5.855,0.893
10.143,-8.675,-2.542,1.026,4.511,-0.611
14.052,-8.789,-2.031,0.994,3.738,-1.484
17.701,-7.98,-0.567,0.734,2.939,-1.328
23.368,-8.155,-1.754,0.314,1.051,-0.327
22.802,-9.021,-2.076,0.149,-2.441,0.988
16.602,-8.872,-1.212,0.236,-4.504,1.118
12.212,-8.614,0.164,0.123,-6.09,-0.304
10.486,-5.289,7.007,-1.241,-7.274,-2.17
-3.158,-0.185,6.936,-1.406,-8.726,-3.381
-5.693,4.449,10.819,-0.549,-5.233,-3.202
-1.889,7.103,13.416,-0.842,-1.741,-1.353
-0.28,7.668,11.676,-0.88,1.04,1.22
-0.048,3.933,2.837,0.693,2.461,3.559
7.0,-1.524,2.601,1.36,3.837,4.58
5.815,-6.794,-1.78,0.609,3.385,3.871
3.493,-8.659,-5.013,0.981,2.941,2.106
2.342,-9.448,-4.012,1.658,2.491,0.655
2.883,-8.873,-1.001,2.003,3.264,-0.574
9.265,-10.024,3.217,1.767,4.118,-1.065
14.583,-11.552,4.607,0.984,2.296,-0.658
15.831,-13.517,5.775,-0.001,0.032,0.221
14.219,-14.057,6.511,-0.878,-1.983,0.968
10.258,-14.236,6.008,-1.512,-3.434,0.54
7.141,-11.279,4.385,-2.277,-5.683,-1.103
5.664,-2.648,8.493,-3.647,-6.902,-2.405
-2.943,5.684,8.051,-3.048,-7.687,-2.953
-5.104,9.966,9.304,-1.364,-4.51,-2.704
-1.362,10.402,11.037,-0.674,-1.761,-0.638
1.008,8.919,8.616,-0.063,0.732,1.979
-0.79,2.713,1.717,1.806,1.12,3.615
1.335,-3.84,-0.638,2.027,2.43,3.511
2.531,-7.192,-4.022,1.112,2.43,2.659
3.744,-7.843,-7.36,1.009,2.209,1.097
3.004,-8.075,-7.836,1.008,1.51,0.054
4.929,-9.059,-7.578,0.606,2.772,-0.625
11.093,-9.536,-8.414,-0.046,2.656,-0.559
12.655,-11.813,-10.25,-0.491,-0.113,-0.639
9.291,-12.387,-9.343,-0.837,-2.832,-1.502
8.195,-10.157,-6.91,-1.238,-4.627,-3.058
8.081,-3.933,-0.335,-2.449,-6.277,-4.282
-2.685,0.953,1.538,-2.024,-6.308,-5.163
-4.102,5.501,7.839,-1.055,-3.539,-4.135
-0.864,8.317,10.452,-1.008,-0.599,-1.357
0.386,8.637,8.296,-0.968,1.811,1.712
-2.859,5.667,-0.095,0.518,3.637,4.197
5.266,1.413,-3.09,0.742,5.115,6.083
5.904,-1.608,-8.496,0.336,3.667,5.851
2.917,-3.606,-11.747,0.792,2.193,4.282
0.429,-4.911,-9.804,1.582,2.052,2.907
2.17,-6.677,-6.239,1.885,2.371,1.666
3.396,-8.029,-3.069,1.888,1.871,0.68
4.38,-12.042,-1.687,1.628,1.512,0.084
4.841,-15.762,-0.891,1.13,0.913,-0.291
5.391,-18.23,0.216,0.442,-0.41,-1.166
7.454,-16.516,1.646,-0.702,-2.554,-2.817
9.212,-6.836,8.243,-2.751,-4.694,-3.266
-0.571,2.706,9.359,-2.611,-6.38,-3.545
-2.541,10.95,12.4,-1.265,-4.307,-2.948
-2.825,13.667,15.04,-0.287,-1.761,-0.895
-1.661,10.968,13.273,0.805,1.701,1.9
-2.865,1.771,5.553,2.959,3.008,3.263
4.768,-4.797,3.743,3.065,4.602,4.12
5.928,-9.897,-0.255,2.089,3.922,3.988
5.799,-11.183,-4.251,1.58,2.982,2.858
2.78,-11.137,-4.077,1.362,1.604,1.617
2.582,-11.033,-2.948,0.922,2.293,0.615
5.337,-11.412,-2.657,0.384,2.3,0.066
6.759,-13.937,-3.924,-0.12,0.658,-0.288
5.916,-17.485,-4.85,-0.398,-1.42,-0.801
5.44,-18.193,-2.972,-1.008,-3.29,-1.996
6.646,-11.375,-0.626,-2.173,-5.286,-3.459
1.834,-4.279,1.879,-2.826,-6.887,-4.006
-1.539,-0.144,3.0,-2.245,-4.565,-3.657
-2.34,7.164,6.153,-1.515,-1.547,-2.18
0.911,9.745,5.648,-1.098,1.731,0.503
2.462,4.779,1.671,-0.392,2.955,3.07
4.199,0.142,-1.597,0.44,2.955,4.524
2.019,-0.661,-2.53,0.549,1.543,4.712
1.796,-3.563,-5.438,0.543,1.326,3.905
-1.737,-4.86,-6.962,1.178,0.651,2.58
-5.087,-5.653,-5.643,2.112,1.567,1.611
-3.358,-6.495,-4.076,2.483,3.387,0.706
1.005,-6.467,-2.267,2.358,3.54,0.043
3.007,-7.352,-1.534,2.031,2.793,-0.687
5.755,-10.198,-1.577,1.678,2.315,-1.166
8.888,-13.995,-1.115,1.075,1.658,-1.096
10.622,-16.031,-1.684,0.326,0.869,-0.506
8.175,-19.195,-0.622,-0.396,-1.075,-0.357
5.883,-19.17,-0.397,-1.674,-3.603,-1.18
4.71,-10.991,5.752,-3.562,-5.943,-2.033
-3.441,-1.148,6.015,-4.062,-7.426,-2.514
-8.813,5.23,7.221,-2.861,-4.965,-2.815
-4.353,11.021,11.145,-1.727,-1.761,-1.575
1.134,10.502,10.701,-0.751,1.731,0.612
1.164,4.303,3.629,1.169,4.062,2.766
5.42,-3.273,1.899,2.202,5.976,3.579
8.899,-8.64,0.786,1.577,5.283,3.51
8.491,-11.892,-4.188,0.907,4.506,2.361
5.566,-10.814,-3.543,1.033,3.206,1.348
4.88,-10.097,-1.734,0.941,3.052,0.103
5.87,-8.829,0.187,0.6,3.237,-0.801
7.425,-7.749,0.99,0.3,2.84,-1.598
11.334,-8.61,2.124,-0.083,2.39,-2.068
16.684,-10.426,0.445,-0.588,1.034,-1.954
17.435,-11.545,0.011,-0.662,-1.143,-1.416
14.948,-11.697,-0.791,-0.231,-2.756,-1.679
20.159,-10.27,1.974,0.298,-5.159,-2.246
11.456,-3.375,14.595,-1.152,-7.425,-3.315
-1.275,0.25,16.195,-0.509,-4.769,-3.493
-3.39,5.313,21.733,0.27,-1.276,-2.8
4.83,7.007,23.362,-0.564,1.731,-0.925
-1.514,7.586,18.489,-1.12,3.483,1.208
1.865,1.322,1.846,0.732,5.752,3.396
7.839,-1.394,-0.882,0.753,4.559,3.842
8.764,-5.937,-8.169,0.407,3.461,2.899
3.776,-7.472,-9.836,1.212,2.041,1.635
4.892,-9.255,-8.023,1.587,2.285,0.65
6.097,-8.393,-4.932,1.642,1.967,-0.056
7.449,-7.52,-2.084,1.475,2.049,-0.471
10.015,-7.671,-0.537,1.1,1.963,-0.509
11.885,-9.763,-1.266,0.587,1.347,-0.162
12.561,-12.601,-2.3,0.188,0.194,0.268
9.31,-15.921,-4.031,0.004,-0.692,0.265
10.589,-15.018,-2.849,0.284,-1.01,-0.56
12.167,-11.782,4.092,0.061,-3.317,-2.264
6.27,-3.564,15.001,-0.856,-4.774,-3.156
0.086,1.708,16.756,-0.358,-2.125,-3.136
3.254,9.253,23.648,0.394,0.303,-1.793
5.943,10.48,23.22,-0.391,1.731,0.529
2.497,8.52,16.005,-0.368,4.745,3.21
7.007,0.224,4.91,0.726,6.884,4.302
11.107,-4.489,2.959,0.643,5.597,3.904
11.406,-9.999,-2.373,0.097,4.841,2.52
8.124,-12.303,-3.059,0.585,3.618,1.058
8.873,-12.487,-1.896,0.744,2.535,0.007
8.465,-10.15,0.592,0.671,1.933,-0.545
10.858,-8.584,2.617,0.331,1.435,-0.529
12.619,-8.913,2.391,-0.027,0.014,-0.076
14.022,-11.163,0.633,-0.3,-1.807,0.627
11.695,-13.63,0.725,-0.304,-3.54,1.118
9.823,-14.789,0.604,-0.472,-3.816,0.715
11.362,-12.847,1.194,-0.836,-5.523,-0.634
8.614,-6.954,7.369,-2.329,-6.839,-2.035
0.204,0.461,9.158,-2.458,-7.287,-2.822
-2.922,6.181,10.462,-1.484,-3.993,-2.721
-0.574,9.362,12.648,-0.881,-1.761,-0.861
-1.221,8.785,10.852,-0.533,1.709,1.517
-0.122,3.57,3.231,1.246,3.295,3.386
1.869,-3.162,0.097,1.946,5.19,3.834
5.788,-8.184,-3.697,1.472,5.179,3.314
6.075,-11.695,-7.609,1.383,3.84,1.865
4.576,-12.949,-7.386,1.444,2.007,0.784
4.286,-11.965,-5.774,1.213,2.102,0.069
8.055,-9.721,-2.929,0.758,1.973,-0.082
8.337,-8.137,-1.432,0.253,0.515,-0.033
8.012,-7.87,-2.101,-0.051,-0.073,0.07
8.327,-10.999,-3.926,-0.315,-0.861,0.278
6.742,-14.559,-4.535,-0.51,-2.272,0.345
5.543,-16.611,-4.221,-0.953,-2.918,-0.3
7.047,-14.441,-4.191,-1.644,-4.943,-1.667
6.869,-9.713,0.983,-3.153,-6.508,-2.752
0.202,0.358,2.566,-3.374,-7.357,-3.069
-2.107,7.734,3.321,-2.163,-4.135,-2.788
0.558,12.459,3.289,-0.757,-1.761,-1.053
-1.241,10.403,3.191,0.377,1.731,1.276
-1.446,5.728,-1.41,2.125,4.752,2.924
3.449,-1.907,-2.549,3.005,7.204,3.299
6.63,-6.975,-3.103,2.646,6.572,2.78
5.778,-10.325,-2.946,2.307,5.884,1.373
6.804,-10.298,-1.764,2.312,5.056,0.112
6.964,-8.865,0.253,2.328,4.263,-0.771
8.872,-7.633,3.498,2.043,3.713,-1.302
11.638,-7.698,6.827,1.364,2.737,-1.282
14.025,-9.127,7.507,0.306,1.262,-0.63
14.971,-10.716,6.301,-0.732,-0.781,0.239
13.888,-12.346,4.919,-1.333,-2.436,0.868
12.085,-14.091,3.631,-1.553,-3.929,0.879
11.121,-12.499,3.758,-1.791,-5.815,-0.115
9.643,-6.471,8.394,-2.708,-7.143,-1.915
2.826,0.917,11.111,-2.662,-7.766,-2.675
-3.091,5.932,12.17,-1.296,-4.846,-2.99
-3.258,10.138,17.407,-0.52,-1.761,-1.547
-1.71,8.985,16.294,-0.466,1.731,0.501
0.777,4.819,8.447,0.583,3.754,2.795
4.428,-1.964,3.079,1.217,4.96,3.66
9.804,-6.952,-0.104,0.28,4.306,3.985
11.091,-10.116,-6.579,-0.324,3.056,2.981
7.997,-8.958,-8.688,0.003,1.659,2.027
4.587,-8.156,-6.817,0.468,1.705,1.078
6.472,-6.782,-4.092,0.622,2.297,0.32
8.512,-6.504,-2.071,0.807,1.317,-0.097
10.161,-7.771,-2.133,0.954,0.505,-0.157
12.286,-10.012,-2.789,1.102,-0.597,0.083
12.952,-13.395,-2.59,1.288,-2.554,0.453
12.138,-16.373,-0.672,1.218,-4.352,0.34
11.492,-14.84,0.903,0.468,-6.21,-0.53
8.856,-8.826,3.897,-1.014,-7.642,-1.427
4.073,-1.214,2.028,-1.349,-7.768,-1.742
1.851,5.989,1.42,-0.545,-4.589,-1.652
0.413,11.221,0.948,0.124,-1.096,-0.779
0.379,8.908,3.053,0.728,2.397,1.002
3.303,3.411,1.899,1.748,5.889,2.124
6.815,-3.555,3.565,1.888,7.001,2.24
7.13,-10.064,2.641,1.021,6.038,1.542
10.507,-13.85,1.567,0.418,5.198,0.375
11.091,-12.25,-1.464,0.218,4.158,-0.931
10.857,-11.385,-2.106,0.351,2.603,-1.51
11.411,-10.77,-0.703,0.166,1.924,-1.677
14.148,-10.083,-0.059,-0.254,0.816,-1.307
15.763,-11.007,-1.884,-0.742,-1.288,-0.718
15.307,-12.232,-2.186,-0.746,-3.742,-0.185
11.81,-12.718,-1.936,-0.916,-5.644,-0.408
10.185,-11.058,-2.288,-1.183,-6.852,-1.297
8.703,-6.979,-0.891,-1.824,-8.072,-2.624
2.69,0.459,-1.42,-2.328,-8.504,-3.18
-0.272,4.843,-0.447,-1.648,-5.011,-2.899
1.366,8.509,-1.133,-0.966,-1.553,-1.314
2.906,8.577,-2.0,-0.602,1.847,0.964
3.44,4.949,-4.616,0.025,4.189,3.188
5.583,-0.756,-5.177,0.883,5.531,4.372
5.399,-4.745,-7.925,0.478,3.809,4.426
3.487,-7.694,-9.095,0.17,3.016,3.498
2.34,-8.561,-9.093,0.409,1.934,2.244
1.302,-7.508,-7.636,0.791,1.447,1.195
1.883,-7.205,-5.806,0.832,2.165,0.328
5.675,-7.419,-6.281,0.626,2.115,-0.327
8.593,-9.924,-8.687,0.508,-0.244,-0.707
6.356,-13.902,-8.213,0.192,-2.655,-1.12
4.784,-14.891,-7.756,-0.628,-4.239,-1.746
5.511,-12.106,-6.887,-1.658,-6.415,-2.699
3.431,-5.184,-4.445,-3.214,-8.134,-3.208
-1.531,2.885,-0.574,-2.892,-5.299,-3.207
0.686,9.893,0.637,-2.014,-1.806,-2.093
4.89,11.925,1.601,-1.229,1.415,-0.093
5.396,8.635,1.19,-0.489,4.398,1.831
6.423,1.554,-0.181,1.016,6.429,3.166
9.078,-5.201,-2.462,0.911,4.838,3.623
7.105,-10.073,-4.554,0.415,3.518,2.819
4.715,-12.288,-6.522,0.356,2.542,1.32
4.623,-12.343,-6.295,0.457,1.546,0.335
4.467,-11.352,-5.814,0.34,1.233,-0.302
6.396,-11.355,-5.369,-0.035,1.16,-0.524
8.926,-12.67,-6.004,-0.312,-0.721,-0.372
7.301,-14.145,-4.86,-0.527,-3.237,-0.448
5.458,-13.817,-4.501,-1.086,-5.081,-0.972
5.666,-11.073,-3.574,-1.954,-6.8,-1.82
3.283,-3.53,-2.904,-3.155,-8.312,-2.233
0.843,4.475,-3.406,-2.966,-6.478,-2.287
2.107,11.057,-4.317,-1.896,-2.985,-1.351
3.232,12.33,-4.309,-0.747,0.364,0.502
3.378,9.229,-4.928,0.44,3.568,2.167
4.973,2.177,-5.151,1.906,5.628,3.067
5.258,-4.158,-4.396,1.994,5.014,3.288
3.705,-9.734,-5.131,1.191,3.876,2.578
3.341,-11.63,-6.235,0.749,2.808,1.239
3.245,-11.5,-6.532,0.513,1.715,0.358
3.656,-11.413,-6.231,0.288,1.305,-0.133
5.745,-11.781,-6.625,-0.093,1.06,-0.313
7.237,-13.604,-7.163,-0.302,-1.114,-0.299
6.097,-15.016,-6.232,-0.625,-3.539,-0.494
4.852,-14.619,-4.261,-1.431,-5.591,-1.088
3.888,-9.274,-2.802,-2.797,-7.241,-2.106
1.798,0.379,-4.906,-3.572,-8.321,-2.21
-0.26,7.522,-3.111,-2.966,-5.788,-1.996
0.624,13.885,-3.913,-1.832,-2.295,-1.004
1.535,15.872,-5.329,-0.27,1.139,0.77
1.693,10.155,-6.045,1.583,4.593,2.588
3.244,0.776,-2.965,2.735,7.137,3.095
4.739,-4.818,-4.719,2.503,6.542,3.117
3.726,-10.156,-5.58,1.963,4.899,2.355
3.042,-12.918,-6.156,1.49,3.732,0.999
4.478,-12.589,-6.342,1.139,2.534,0.039
5.176,-12.657,-5.692,0.755,1.298,-0.419
6.764,-12.734,-4.791,0.259,0.561,-0.432
8.314,-13.703,-4.165,-0.323,-0.308,-0.104
7.996,-14.736,-3.675,-0.672,-2.416,0.168
5.937,-14.777,-2.357,-1.134,-4.271,-0.18
5.135,-12.244,-1.196,-2.133,-5.765,-1.009
3.766,-5.804,0.421,-3.494,-7.146,-1.636
1.173,1.99,-1.511,-3.724,-7.192,-1.709
0.228,8.081,-1.683,-2.962,-4.141,-1.491
0.443,11.852,-2.692,-1.651,-1.05,-0.329
1.249,10.36,-2.756,-0.069,2.443,1.466
3.051,4.538,-3.632,1.688,5.663,2.656
6.338,-2.065,-1.985,2.244,6.86,3.087
7.331,-7.362,-3.113,1.939,5.189,3.192
6.821,-11.396,-4.099,1.239,4.075,2.511
6.572,-12.095,-5.593,0.927,2.694,1.44
5.889,-11.876,-5.744,0.718,1.238,0.615
5.201,-11.923,-4.879,0.478,0.708,0.005
6.439,-11.983,-4.419,-0.042,0.458,-0.33
8.313,-13.129,-4.62,-0.461,-1.397,-0.409
7.016,-14.489,-4.292,-0.792,-3.508,-0.496
5.537,-14.648,-3.59,-1.224,-4.768,-0.907
5.436,-12.099,-2.557,-2.114,-6.149,-1.708
4.587,-5.898,-1.483,-3.38,-7.496,-2.247
0.965,1.903,-2.443,-3.279,-6.68,-2.094
0.734,8.901,-2.017,-2.218,-3.188,-1.431
1.783,11.583,-1.629,-1.141,-0.2,0.169
3.05,9.885,-2.583,0.029,3.071,1.937
3.901,4.301,-3.528,1.596,5.65,3.252
6.701,-1.807,-2.805,1.989,6.367,3.692
6.184,-7.9,-3.969,1.449,5.162,3.344
6.335,-10.423,-5.534,0.993,4.356,2.066
5.937,-10.791,-5.483,0.942,2.968,0.913
6.577,-10.66,-4.859,0.82,2.064,0.03
7.544,-10.973,-3.625,0.503,1.604,-0.483
9.841,-10.557,-3.401,0.138,0.791,-0.509
10.379,-11.636,-3.595,-0.112,-0.735,-0.181
10.096,-12.774,-4.142,-0.297,-1.977,0.127
8.9,-13.474,-3.308,-0.377,-3.41,0.039
7.765,-12.875,-2.144,-0.903,-4.918,-0.625
7.38,-9.083,-0.757,-1.949,-6.393,-1.71
5.369,-1.499,0.341,-3.277,-7.553,-2.226
1.108,4.637,0.364,-3.116,-6.669,-2.306
-0.403,10.326,-0.718,-2.118,-3.417,-1.852
0.036,12.726,-0.321,-0.735,-0.014,-0.364
0.196,9.706,-0.436,0.619,3.479,1.249
1.377,4.036,-0.301,2.15,6.532,1.953
5.398,-1.105,0.173,2.275,7.53,1.664
7.736,-5.359,0.97,1.71,7.135,0.749
9.685,-7.29,0.793,1.314,6.64,-0.86
14.454,-7.63,0.511,1.307,5.333,-2.082
17.823,-8.067,1.459,1.145,3.406,-2.504
19.668,-7.056,2.475,0.567,1.418,-2.249
23.226,-7.555,1.703,-0.072,-0.005,-1.102
25.807,-7.872,0.303,-0.711,-2.697,0.517
21.924,-7.181,1.904,-0.88,-4.882,1.84
17.71,-6.584,1.766,-0.758,-6.008,1.841
15.467,-5.275,1.278,-0.578,-6.496,1.124
11.491,-1.124,1.507,-1.008,-8.169,-0.389
5.339,4.927,0.801,-1.35,-7.969,-1.702
2.961,7.728,-0.191,-0.945,-5.281,-1.951
3.399,11.353,-1.828,-0.429,-2.341,-0.866
2.736,11.892,-1.455,-0.007,0.88,1.019
3.81,7.589,-2.406,0.336,4.199,2.575
4.487,1.061,-3.075,0.728,5.667,3.001
4.394,-1.723,-5.757,-0.186,5.617,1.74
8.218,-3.4,-7.436,-0.797,5.951,-0.028
12.865,-5.326,-9.486,-1.101,4.506,-1.466
12.765,-4.472,-10.469,-1.001,2.508,-2.016
14.348,-3.009,-11.193,-1.04,2.112,-1.815
18.01,-2.236,-13.214,-0.678,0.99,-0.789
17.219,-3.883,-15.023,-0.553,-1.783,0.189
14.535,-3.706,-14.516,0.003,-3.682,0.469
13.624,-3.492,-11.914,0.503,-5.004,-0.088
13.147,-2.041,-9.683,0.496,-6.403,-1.436
9.488,4.701,-7.507,-0.361,-7.918,-2.842
6.174,7.328,-2.895,-0.127,-5.509,-3.154
4.685,10.328,-0.776,-0.162,-3.348,-2.401
3.75,13.114,-0.816,-0.179,-0.355,-0.751
4.237,12.426,-1.58,-0.138,2.958,1.432
5.159,5.607,-1.752,0.512,5.807,3.034
5.712,2.002,-4.286,-0.016,5.527,2.837
6.653,-0.354,-7.629,-0.44,6.34,1.326
10.991,-2.566,-9.13,-0.547,6.746,-0.212
13.401,-4.126,-9.148,-0.38,5.112,-1.416
15.249,-4.314,-7.768,-0.311,3.658,-1.832
16.621,-2.883,-7.162,-0.355,2.39,-1.402
18.736,-2.898,-8.397,-0.36,0.688,-0.381
19.198,-3.668,-11.26,-0.007,-1.857,0.628
19.429,-3.154,-10.829,0.595,-3.716,1.351
17.654,-2.922,-9.983,1.141,-5.11,1.091
17.238,-1.476,-8.762,1.557,-5.854,0.3
14.776,1.79,-5.779,1.282,-6.729,-0.927
10.501,6.216,-2.12,0.657,-6.044,-1.84
6.459,8.715,-1.222,0.357,-4.177,-1.764
5.961,11.589,-1.083,0.241,-2.1,-0.566
3.991,11.751,-1.272,-0.035,0.442,1.105
4.028,8.482,-2.054,-0.112,3.39,2.661
4.588,3.182,-3.066,-0.063,5.169,2.925
7.194,0.304,-5.645,-0.4,5.76,1.839
9.674,-3.05,-7.359,-0.528,6.756,0.241
15.149,-5.451,-7.324,-0.414,6.235,-1.082
16.49,-5.978,-6.573,-0.224,4.033,-1.747
16.876,-4.407,-6.214,-0.305,2.177,-1.558
17.646,-3.585,-5.628,-0.339,1.399,-0.893
20.195,-3.191,-8.105,-0.183,-0.607,0.106
19.165,-3.232,-8.844,0.29,-2.432,0.92
19.351,-3.145,-7.19,0.881,-3.367,1.226
19.316,-2.728,-4.809,1.295,-4.829,0.716
16.302,-0.311,-3.008,1.081,-6.509,-0.452
11.029,5.051,-1.008,0.391,-7.269,-1.386
6.72,7.84,1.302,0.295,-5.412,-1.663
4.201,10.52,0.656,0.189,-3.268,-1.151
2.53,11.907,-0.486,0.009,0.224,0.348
3.723,9.901,-0.765,-0.028,3.717,2.059
5.213,4.4,-0.41,0.121,6.846,2.623
8.487,0.804,-2.912,-0.232,6.767,1.98
12.069,-2.053,-4.933,-0.433,6.991,0.625
16.784,-5.095,-5.815,-0.408,5.658,-0.737
17.298,-6.129,-6.567,-0.288,3.522,-1.571
17.164,-5.559,-5.437,-0.203,1.777,-1.585
16.533,-3.516,-4.298,-0.421,0.838,-1.121
16.967,-2.633,-4.731,-0.605,-0.139,-0.358
18.033,-2.3,-6.917,-0.463,-1.105,0.397
19.836,-2.311,-6.086,0.193,-2.254,1.117
19.789,-2.557,-4.515,0.826,-3.945,1.239
17.849,-2.828,-3.647,1.191,-5.526,0.548
15.136,-0.714,-1.85,0.861,-7.272,-0.644
9.243,5.731,-1.314,0.2,-7.892,-1.538
5.299,8.734,0.012,0.293,-5.085,-1.594
4.872,11.086,-0.578,0.066,-2.33,-0.73
4.568,11.817,-1.912,-0.363,0.972,0.875
4.939,9.571,-3.004,-0.419,4.413,2.364
5.441,3.224,-2.445,-0.236,6.569,2.623
7.347,0.265,-5.086,-0.948,6.378,1.356
11.744,-1.417,-7.889,-1.256,6.434,-0.196
15.322,-2.758,-8.852,-1.203,4.905,-1.385
15.241,-3.227,-8.395,-0.992,3.157,-1.86
16.876,-2.197,-7.125,-0.935,2.08,-1.648
17.719,-0.757,-7.601,-0.803,0.841,-0.802
17.898,-1.018,-9.244,-0.478,-0.574,0.158
18.903,-0.665,-9.309,0.247,-1.956,0.976
18.981,-0.543,-7.321,0.957,-3.65,1.198
16.758,-1.008,-6.265,1.293,-5.268,0.607
15.574,0.117,-4.713,1.04,-6.734,-0.432
10.714,4.821,-2.788,0.159,-8.131,-1.549
5.974,7.702,-0.445,0.076,-5.982,-1.945
4.393,10.588,-1.18,0.129,-3.495,-1.327
4.061,12.253,-0.847,0.222,-0.326,0.256
3.455,10.177,-1.046,0.226,3.047,1.98
4.272,4.806,-2.423,0.693,6.309,2.798
6.068,0.106,-4.587,0.278,6.23,2.098
8.322,-2.225,-7.036,-0.202,6.418,0.586
13.349,-3.994,-8.28,-0.348,6.234,-0.725
15.151,-4.017,-8.88,-0.173,4.228,-1.682
15.017,-3.628,-6.342,-0.125,2.488,-1.764
16.077,-1.595,-6.478,-0.318,1.846,-1.232
18.997,-2.059,-8.358,-0.315,0.326,-0.279
18.695,-2.1,-10.274,-0.036,-2.441,0.408
18.577,-2.064,-9.512,0.454,-3.928,0.76
17.671,-2.197,-8.485,0.796,-5.448,0.321
16.338,-0.635,-6.955,0.743,-7.137,-0.649
11.087,3.313,-4.114,0.068,-8.292,-1.837
6.646,6.918,-1.724,-0.299,-6.386,-2.67
5.165,8.899,-0.967,-0.142,-3.936,-2.223
4.695,11.683,-1.204,0.048,-1.87,-0.78
3.072,11.099,-1.908,0.292,1.418,1.325
3.65,6.941,-2.609,0.721,4.91,2.988
4.383,2.684,-3.843,0.428,6.044,3.45
5.019,1.381,-6.004,-0.114,7.087,2.201
10.51,-0.848,-5.641,-0.353,8.514,0.607
18.455,-3.146,-8.089,-0.442,6.752,-0.955
19.774,-2.608,-5.761,-0.453,4.088,-1.326
20.387,-1.596,-5.716,-0.353,1.914,-1.281
22.135,-1.727,-5.78,-0.207,0.394,-0.447
22.487,-2.289,-8.649,-0.094,-2.504,0.606
19.276,-1.319,-6.234,0.378,-4.058,1.547
18.855,-1.992,-5.694,0.84,-4.886,1.17
18.59,-0.79,-4.355,1.102,-6.003,0.383
16.393,0.898,-2.592,0.651,-7.975,-0.731
10.249,5.424,-1.182,-0.171,-8.431,-1.863
5.362,7.506,-0.089,-0.323,-5.955,-2.306
3.254,10.437,-0.777,-0.051,-3.123,-1.634
2.92,10.716,-0.56,0.116,0.369,0.116
2.736,8.683,-1.155,0.1,3.862,1.775
3.866,3.989,-0.973,0.383,7.078,2.537
6.151,1.519,-2.034,-0.017,7.636,1.745
11.274,0.188,-3.501,-0.415,8.103,0.268
16.327,-2.023,-4.687,-0.365,7.024,-1.158
19.481,-2.577,-5.454,0.192,5.352,-2.125
20.998,-2.839,-4.972,0.37,3.353,-2.009
21.209,-2.202,-5.2,0.368,2.021,-1.057
22.673,-3.93,-5.038,0.126,0.365,0.228
22.754,-3.528,-5.783,-0.219,-1.67,1.194
22.204,-2.683,-3.362,-0.103,-3.489,1.841
20.62,-1.766,-1.277,0.398,-4.844,1.302
19.483,-0.38,0.212,0.712,-6.583,0.098
14.139,4.156,0.694,0.333,-8.226,-1.521
7.454,7.012,2.05,0.596,-6.36,-2.286
3.976,8.569,2.066,0.737,-3.451,-1.978
4.308,9.77,0.839,0.373,-0.502,-0.511
3.861,9.426,-0.515,-0.239,2.391,1.388
3.23,5.316,-1.818,-0.218,5.438,3.028
4.78,2.01,-3.451,-0.758,6.245,2.902
6.164,0.404,-5.436,-1.347,6.61,1.413
11.294,0.264,-5.445,-1.436,7.154,-0.34
15.715,-1.607,-5.141,-1.168,6.994,-1.604
19.906,-0.914,-3.913,-0.855,5.368,-1.931
24.273,-0.28,-3.426,-0.705,2.642,-1.321
28.595,-0.348,-3.147,-0.424,-0.533,0.042
26.5,-1.266,-2.868,-0.16,-4.025,1.09
22.084,-0.252,-1.846,0.16,-6.899,1.142
18.584,0.729,-1.41,0.537,-7.548,0.204
15.283,3.277,-0.557,0.847,-7.252,-1.097
10.486,6.763,-0.672,0.712,-6.489,-2.471
5.425,7.696,-1.035,0.945,-4.159,-2.517
4.85,9.257,-0.277,1.11,-0.666,-1.345
5.355,7.833,0.185,0.49,2.054,0.414
5.171,5.556,-0.237,-0.148,4.438,1.789
4.781,1.114,-0.792,-0.463,6.07,2.392
6.721,-0.924,-2.316,-1.041,6.486,1.334
11.024,-1.695,-3.113,-1.379,6.486,-0.397
14.271,-2.221,-3.559,-1.076,5.198,-1.839
16.899,-2.851,-4.16,-0.791,3.984,-2.478
20.919,-2.294,-4.652,-0.765,2.969,-2.285
25.538,-1.47,-7.011,-0.73,1.041,-1.242
26.211,-1.749,-9.142,-0.222,-2.451,0.019
23.607,-1.18,-8.927,0.422,-4.655,0.353
21.133,0.577,-7.219,1.217,-6.177,-0.148
18.279,3.399,-5.299,1.665,-7.657,-1.431
14.368,7.361,-2.812,1.535,-8.476,-2.715
8.791,8.882,-0.384,1.484,-6.365,-2.837
7.945,11.127,-0.031,1.69,-2.99,-1.798
7.527,10.469,-0.72,1.305,-0.26,0.093
4.972,8.196,-1.68,1.0,3.159,2.251
2.801,2.899,-1.758,1.051,6.517,3.429
3.475,-0.169,-2.676,0.425,7.843,2.547
6.451,-1.144,-2.585,-0.465,7.961,0.707
11.206,-1.809,-1.628,-0.647,7.976,-1.025
16.209,-2.522,-1.608,-0.502,6.195,-2.194
20.737,-1.865,-1.706,-0.445,4.389,-2.477
25.973,-0.903,-3.642,-0.333,1.969,-1.607
27.638,-1.87,-6.574,0.185,-1.524,-0.128
23.94,-2.013,-6.937,0.734,-4.539,0.496
19.369,-1.214,-6.414,0.972,-6.178,-0.211
17.068,2.309,-5.791,1.18,-7.372,-1.519
13.366,7.545,-4.654,0.912,-8.042,-2.899
7.733,9.085,-1.661,1.053,-5.667,-2.998
6.344,12.05,-1.077,0.981,-3.163,-2.11
7.071,13.294,-1.04,0.725,0.33,-0.104
6.582,10.394,-0.794,0.318,3.464,1.937
6.644,4.162,-0.309,0.394,6.278,3.041
8.998,1.185,-2.865,-0.13,6.276,2.205
10.381,-2.03,-4.817,-0.358,6.67,0.721
14.16,-4.15,-4.003,-0.176,6.089,-0.806
17.023,-5.254,-4.924,0.147,4.348,-1.73
18.995,-4.88,-4.876,0.341,2.742,-1.616
20.327,-4.106,-4.358,0.261,1.482,-0.942
24.007,-3.189,-5.498,0.085,-0.556,0.152
23.555,-2.841,-6.821,0.325,-3.467,1.15
20.531,-2.805,-4.396,0.822,-5.218,1.385
15.925,-4.008,-1.889,0.698,-6.773,0.291
14.332,-0.341,-1.001,-0.143,-7.885,-1.3
7.734,3.142,0.058,-0.967,-8.746,-2.299
3.362,4.882,1.374,-0.893,-5.644,-2.756
2.246,8.102,0.747,-0.693,-2.152,-2.0
4.457,11.181,-0.348,-0.436,1.341,0.172
3.297,8.237,-0.359,0.1,4.789,2.195
4.947,4.015,0.683,0.611,8.034,2.653
7.789,2.092,-0.528,0.099,8.021,1.837
13.04,0.5,-0.462,-0.454,7.739,0.277
16.496,-1.481,-1.272,-0.608,6.657,-1.454
18.852,0.063,-0.627,-0.217,5.452,-2.144
20.862,-0.483,0.63,-0.228,3.391,-2.001
20.653,0.604,0.284,-0.252,1.42,-0.935
20.616,0.248,-2.548,-0.076,-0.305,0.463
20.398,1.214,-4.273,0.712,-2.07,1.843
19.925,-0.957,-3.247,1.458,-4.313,2.421
17.632,-0.158,-3.569,2.224,-5.498,2.175
14.911,-1.119,-2.488,2.213,-6.153,1.161
11.015,0.417,-0.349,1.519,-7.253,-0.112
7.272,2.805,0.308,0.365,-7.374,-1.181
4.366,5.191,-0.248,-0.22,-5.428,-1.249
3.709,7.067,-0.813,-0.581,-2.807,-0.354
3.709,7.356,-1.279,-0.665,0.196,1.098
3.759,5.12,-2.687,-0.439,3.303,1.998
3.86,1.507,-2.38,-0.144,5.846,1.922
6.377,-0.659,-4.008,-0.478,6.71,0.785
10.095,-1.858,-4.951,-0.84,6.846,-0.56
14.38,-2.062,-5.621,-0.94,5.347,-1.672
15.646,-2.006,-5.948,-1.052,3.554,-2.121
17.838,-0.515,-5.673,-1.181,2.395,-1.681
19.499,0.191,-5.877,-1.137,0.881,-0.89
20.08,0.218,-8.614,-0.613,-0.378,0.271
20.89,-0.625,-9.435,0.285,-1.697,1.502
20.753,-1.26,-5.76,1.162,-3.396,2.195
16.942,-2.831,-4.743,1.478,-5.305,1.551
14.516,-1.399,-3.929,1.289,-6.601,0.516
11.135,2.373,-1.77,0.434,-7.962,-0.558
6.424,6.317,0.616,0.324,-5.907,-1.099
4.31,9.359,-0.72,0.192,-3.045,-0.712
5.217,10.704,-0.944,0.139,0.448,0.733
4.798,8.355,-1.07,0.216,3.94,1.969
4.707,2.512,-0.306,0.593,6.805,2.167
7.564,-0.962,-1.831,-0.132,6.876,1.0
11.9,-2.674,-2.593,-0.671,6.968,-0.524
15.72,-3.614,-3.718,-0.811,5.514,-1.931
18.107,-3.652,-5.436,-0.537,3.666,-2.538
21.01,-3.472,-5.919,-0.338,2.184,-2.037
22.577,-3.26,-8.214,0.076,0.358,-0.692
22.443,-4.353,-10.234,0.748,-2.346,0.651
20.245,-4.416,-9.336,1.579,-4.384,1.19
16.256,-4.132,-7.864,1.631,-5.257,0.534
14.532,0.97,-8.064,1.544,-6.519,-0.77
10.285,4.774,-4.961,1.273,-6.508,-2.016
6.203,6.158,-1.366,1.005,-4.627,-2.501
4.494,8.704,-0.989,0.631,-2.645,-1.784
4.964,10.321,-0.289,0.596,-0.864,0.172
3.578,7.019,0.565,0.388,1.894,2.168
3.842,3.061,-0.581,-0.019,3.907,3.251
3.17,1.142,-2.473,-0.819,4.899,2.674
6.2,-0.053,-3.776,-1.464,6.41,0.864
11.047,-1.641,-4.441,-1.87,6.76,-0.908
15.305,-2.628,-6.508,-2.09,5.742,-2.245
17.35,-1.699,-4.919,-2.165,4.128,-2.45
19.633,0.06,-4.842,-2.141,2.454,-2.04
19.913,0.476,-5.586,-1.831,0.669,-0.771
21.009,1.341,-8.251,-1.014,-1.261,0.549
19.943,2.033,-6.613,0.416,-3.259,1.801
19.017,0.681,-6.051,1.645,-4.617,1.895
16.575,-0.715,-5.369,2.272,-5.757,1.179
15.236,0.152,-3.99,2.075,-7.264,0.069
9.602,2.795,-1.044,0.892,-8.236,-1.136
6.275,5.509,0.219,0.385,-5.842,-1.612
5.043,9.025,-0.763,0.236,-3.17,-1.045
5.422,10.606,-0.732,0.178,0.013,0.55
4.301,8.117,-1.001,0.169,3.305,1.776
4.662,3.271,-1.343,0.661,6.798,1.924
7.749,0.467,-2.16,0.042,7.412,0.581
13.184,-2.043,-2.937,-0.579,6.916,-0.914
16.395,-3.006,-3.916,-0.827,5.086,-2.28
18.815,-0.996,-5.474,-0.537,3.21,-2.866
19.951,-0.206,-5.504,-0.443,1.266,-2.367
19.459,-0.001,-7.755,-0.066,-0.024,-0.95
18.323,-0.103,-9.443,0.294,-1.041,0.313
19.013,0.812,-10.014,1.14,-2.376,1.339
16.633,-0.934,-8.088,1.701,-3.991,1.483
15.021,0.864,-8.311,2.356,-4.713,0.573
13.417,2.514,-5.211,2.245,-5.98,-0.818
9.011,5.24,-2.49,1.723,-6.466,-2.029
5.452,6.24,-0.681,1.293,-4.974,-2.323
4.58,8.883,-0.409,0.986,-2.581,-1.533
3.712,7.819,0.868,0.264,0.084,0.229
4.133,5.347,0.222,-0.421,3.126,1.432
5.214,1.82,-0.153,-0.803,5.261,1.679
8.131,0.808,-2.515,-1.537,5.88,0.728
11.395,-1.097,-3.631,-2.115,6.024,-0.588
15.9,-0.98,-4.841,-2.128,5.114,-1.789
17.444,-0.488,-5.047,-1.684,3.642,-2.064
18.57,0.477,-5.249,-1.31,2.326,-1.642
17.502,0.299,-3.267,-1.081,1.406,-0.879
17.897,1.134,-3.37,-0.821,0.402,-0.126
19.976,2.681,-4.903,-0.267,-0.767,0.853
20.361,3.596,-6.349,0.612,-2.451,1.866
19.324,2.189,-4.283,1.578,-3.943,2.346
17.398,0.896,-4.028,2.252,-5.463,1.701
14.756,-0.286,-2.252,2.094,-6.777,0.596
8.835,-0.353,0.965,0.82,-8.19,-0.98
4.964,3.619,0.281,-0.209,-7.411,-2.077
4.251,7.55,-1.271,-0.388,-4.62,-1.99
3.966,9.735,-1.358,-0.511,-1.162,-0.674
3.264,8.728,-1.55,-0.338,2.113,0.873
4.704,5.268,-2.64,0.524,5.605,1.746
6.367,-1.251,-0.042,0.873,6.874,1.167
8.426,-3.734,-0.559,0.368,7.018,-0.442
14.21,-5.705,-0.946,0.121,5.957,-1.902
17.307,-5.128,-3.472,0.041,4.32,-2.9
18.412,-4.027,-2.425,-0.166,2.513,-3.022
19.684,-1.501,-2.927,-0.514,1.226,-2.287
22.045,-0.537,-4.412,-0.536,0.061,-0.912
21.355,0.716,-6.824,-0.253,-1.49,0.362
21.281,0.976,-5.023,0.538,-3.33,1.262
19.356,1.288,-5.571,1.323,-5.016,1.196
17.184,1.592,-5.382,2.009,-6.087,0.383
12.823,2.012,-3.288,1.97,-7.499,-0.911
8.517,4.237,-1.547,1.448,-7.528,-2.176
4.917,6.614,-0.695,1.256,-4.869,-2.407
5.647,8.007,0.278,0.862,-1.774,-1.118
5.885,7.784,0.354,0.055,1.126,0.685
5.988,6.33,-0.138,-0.515,4.261,2.24
6.626,2.729,-0.112,-0.969,6.54,2.784
9.258,0.436,-2.708,-1.803,6.41,1.909
12.215,0.707,-5.143,-1.894,6.618,0.136
16.465,-0.915,-5.292,-1.311,5.798,-1.18
18.037,-1.4,-5.476,-0.774,4.004,-1.874
19.352,-1.107,-5.822,-0.193,2.845,-1.542
22.552,-0.778,-6.557,0.281,1.845,-0.534
24.059,-2.108,-8.042,0.816,-1.305,0.872
22.116,-1.859,-7.1,1.391,-3.413,1.476
20.751,-0.814,-6.584,2.078,-5.03,1.0
19.967,0.963,-4.814,2.527,-6.538,-0.168
15.87,3.53,-1.657,2.1,-8.02,-1.574
9.326,5.35,1.318,1.548,-6.698,-2.345
6.736,7.663,1.29,1.184,-4.236,-1.864
5.773,8.456,1.937,0.532,-1.181,-0.284
4.332,7.021,1.095,-0.333,1.881,1.453
3.974,3.418,-0.171,-0.625,5.093,2.442
6.101,1.151,-1.431,-1.076,6.22,1.904
8.945,0.447,-4.032,-1.718,6.541,0.272
14.311,-1.138,-5.79,-1.688,5.935,-1.234
17.371,-1.6,-6.775,-1.332,4.766,-2.153
20.015,-1.082,-6.529,-0.932,3.329,-2.058
21.587,-0.7,-6.173,-0.643,2.092,-1.089
23.967,-2.932,-6.595,-0.357,0.842,0.659
22.675,-3.833,-5.472,-0.134,-1.541,2.171
20.785,-3.618,-2.505,0.335,-3.865,2.544
17.135,-3.335,-1.117,0.587,-5.701,1.645
14.146,-1.013,-0.368,0.197,-7.067,0.145
8.123,4.693,0.508,-0.112,-7.604,-1.181
5.413,7.743,1.816,-0.051,-5.194,-1.684
5.263,10.583,0.049,-0.302,-2.583,-0.958
5.638,11.024,-1.419,-0.868,0.547,0.84
5.95,8.682,-2.683,-1.103,4.04,2.372
7.639,3.638,-1.569,-1.364,6.388,2.489
10.307,2.461,-5.595,-2.013,6.7,1.296
14.102,0.558,-6.646,-2.188,6.963,-0.028
18.506,0.192,-8.668,-1.833,5.474,-1.317
20.169,0.017,-7.168,-1.416,3.071,-1.445
19.99,0.7,-7.492,-1.13,1.044,-0.878
19.443,0.398,-5.79,-0.823,0.072,0.205
19.692,0.122,-8.483,-0.539,-1.98,1.119
17.367,-0.396,-6.792,0.152,-3.621,1.892
15.839,-1.786,-7.038,0.945,-4.71,1.308
15.056,-0.92,-5.725,1.358,-5.678,-0.075
13.45,1.691,-4.447,1.09,-7.2,-1.714
7.508,5.635,-1.5,0.813,-6.209,-2.495
7.395,8.097,0.564,0.459,-3.485,-1.879
7.835,11.703,0.76,-0.426,-0.996,-0.499
7.486,10.668,-1.386,-1.202,2.016,1.445
6.896,6.499,-3.69,-1.494,4.511,2.773
7.966,2.462,-5.844,-1.986,5.097,2.519
8.768,1.935,-10.448,-2.346,5.565,0.962
11.711,-0.085,-12.453,-1.882,5.099,-0.285
13.162,-0.047,-12.297,-1.321,3.179,-1.21
13.595,1.211,-11.14,-0.798,2.307,-1.301
15.973,1.811,-9.62,-0.42,1.672,-0.657
17.555,1.505,-10.232,-0.336,0.075,0.302
17.641,1.328,-12.378,-0.068,-1.22,1.184
17.737,0.249,-9.882,0.622,-2.662,1.466
15.286,-0.954,-7.574,0.794,-4.657,0.347
16.85,4.401,-6.884,0.585,-6.422,-0.834
13.854,7.593,-2.669,1.071,-5.173,-0.864
12.105,8.562,1.8,0.66,-3.28,-0.597
10.829,10.59,-0.063,-0.375,-0.856,0.12
11.174,11.993,-2.698,-1.056,2.38,1.805
7.071,6.494,-4.12,-1.278,5.586,2.683
8.084,4.149,-7.182,-1.983,5.672,1.693
8.677,4.538,-11.497,-2.077,5.229,0.298
10.513,3.46,-15.23,-1.656,4.775,-0.74
12.436,3.422,-15.08,-1.1,3.384,-1.191
14.21,3.657,-13.437,-0.606,1.505,-0.883
13.221,2.971,-11.85,-0.379,-0.044,-0.125
13.459,3.794,-11.429,-0.295,-0.807,0.893
12.346,4.226,-10.923,-0.448,-1.995,1.621
11.695,3.701,-12.828,-0.059,-3.839,1.53
7.919,1.95,-11.924,0.391,-5.166,0.204
5.496,2.085,-10.497,0.379,-5.163,-1.777
5.983,7.738,-9.493,-0.092,-5.94,-4.057
5.451,9.818,-4.501,0.489,-3.801,-4.305
7.969,12.994,-0.786,0.185,-0.841,-2.887
10.401,15.827,-2.701,-0.573,2.279,-0.411
11.241,13.251,-4.474,-0.807,3.928,2.278
7.432,4.279,-4.382,-0.49,5.631,4.216
5.962,1.279,-8.783,-1.136,5.916,3.431
6.96,-0.927,-10.446,-1.07,6.449,1.406
10.081,-3.123,-10.855,-0.914,4.931,-0.282
11.441,-1.958,-10.701,-0.824,3.765,-1.312
13.491,-0.797,-9.094,-0.884,3.041,-1.53
16.263,-0.017,-7.23,-0.837,1.382,-1.011
16.183,0.34,-10.642,-0.835,-0.887,-0.45
16.043,0.664,-13.379,-0.157,-2.453,-0.123
16.225,-0.164,-13.54,0.699,-4.32,-0.558
14.408,-0.013,-12.546,1.243,-5.938,-2.19
15.712,5.407,-12.554,0.756,-7.486,-3.974
12.005,7.121,-8.03,1.048,-6.268,-4.335
11.472,9.934,-1.715,1.085,-4.465,-2.94
9.664,13.564,-1.381,0.67,-2.331,-1.086
9.01,14.679,-3.727,0.822,0.828,1.863
4.832,9.243,-3.61,1.773,3.676,4.476
2.521,6.208,-6.284,1.479,4.319,5.036
-0.015,3.677,-10.642,1.261,5.971,3.186
3.682,0.856,-11.413,1.409,7.094,1.305
7.529,-1.546,-12.365,1.228,5.903,-0.458
10.509,-2.133,-11.816,0.856,4.993,-1.282
13.897,-2.514,-10.051,0.422,3.358,-1.444
15.451,-2.899,-9.178,-0.009,1.729,-0.822
16.285,-2.817,-10.503,-0.57,-0.517,-0.26
15.963,-2.02,-10.717,-0.835,-2.3,0.088
15.59,-2.078,-10.829,-0.829,-4.238,-0.643
14.628,-0.648,-9.934,-0.703,-5.687,-2.072
13.539,2.735,-7.547,-1.008,-7.551,-3.914
7.637,7.421,-6.168,-1.031,-6.282,-5.063
5.729,8.819,-1.504,-0.427,-3.179,-4.509
6.315,11.55,0.001,-0.031,-0.014,-2.759
7.458,12.21,-1.265,-0.191,3.231,-0.157
6.392,9.194,-3.888,-0.145,6.423,2.626
8.22,3.591,-3.932,-0.289,7.045,4.177
8.131,2.954,-9.027,-0.954,6.765,3.429
8.952,0.64,-11.903,-1.007,6.596,1.902
10.648,-1.317,-12.094,-0.528,5.618,0.418
13.312,-2.043,-11.245,-0.112,4.422,-0.65
14.838,-1.609,-9.305,0.025,2.866,-0.978
15.411,-1.707,-6.695,-0.001,1.512,-0.595
16.515,-1.322,-6.677,-0.298,0.114,-0.015
17.564,-0.205,-9.244,-0.442,-1.861,0.302
17.563,-0.309,-10.117,-0.029,-3.857,0.263
14.952,-0.912,-9.729,0.36,-5.202,-1.001
14.563,1.281,-9.042,0.354,-6.433,-2.844
11.424,8.091,-9.069,-0.565,-8.031,-4.514
7.477,8.996,-4.349,0.073,-4.837,-4.349
6.294,11.187,-1.529,0.132,-2.292,-3.472
7.56,13.374,-1.873,0.098,0.473,-1.362
6.735,11.545,-2.934,0.138,3.054,1.323
5.271,4.219,-2.461,0.828,5.89,3.438
4.48,1.879,-4.907,-0.189,5.484,3.151
5.096,0.821,-8.336,-1.004,6.154,1.784
8.382,-0.177,-10.371,-1.244,6.214,0.408
11.161,-1.074,-11.366,-1.278,5.314,-0.797
14.034,-1.501,-11.284,-1.155,4.217,-1.354
16.19,-0.757,-10.392,-0.966,2.802,-1.144
16.435,-0.879,-9.326,-0.812,1.098,-0.4
15.95,-0.33,-10.779,-0.87,-0.505,0.287
15.903,0.398,-12.476,-0.673,-2.358,0.717
13.752,-0.084,-11.299,-0.385,-4.095,0.257
11.201,-0.3,-10.957,-0.453,-5.746,-1.254
9.464,2.03,-9.844,-0.726,-7.088,-3.186
5.297,8.656,-7.741,-1.221,-7.01,-4.73
3.445,9.189,-2.78,-0.772,-3.853,-4.379
5.342,12.827,-1.534,-0.605,-1.257,-2.779
6.723,14.848,-2.776,-0.422,1.101,-0.309
4.974,12.737,-4.362,0.143,3.802,2.342
5.414,4.323,-4.659,0.867,5.387,4.127
3.63,2.493,-7.464,0.567,5.002,3.465
3.346,-0.367,-8.585,0.447,5.899,1.889
5.663,-3.114,-6.998,0.669,6.405,0.416
9.32,-4.307,-5.596,0.582,5.761,-0.865
13.142,-3.933,-4.617,0.424,4.486,-1.576
16.485,-3.133,-2.536,-0.012,2.906,-1.502
16.79,-2.861,-2.632,-0.447,0.877,-1.052
17.189,-1.922,-4.024,-0.771,-0.268,-0.523
18.781,-1.663,-6.291,-1.123,-1.666,-0.023
18.513,-1.611,-7.66,-1.347,-3.276,0.249
16.799,-2.47,-8.466,-1.361,-4.72,-0.12
14.132,-2.588,-7.884,-1.101,-6.184,-1.359
10.692,-0.529,-5.139,-1.116,-7.321,-3.221
6.655,6.535,-5.033,-1.41,-7.21,-4.424
5.385,8.965,-2.432,-0.723,-3.973,-3.783
6.294,11.807,-1.488,-0.593,-1.912,-2.133
6.289,14.645,-3.364,-0.739,0.624,0.415
5.33,12.575,-6.724,-0.492,3.201,3.187
4.587,5.527,-5.888,0.197,5.476,4.631
3.675,3.657,-9.065,0.03,5.664,3.731
4.818,1.593,-11.437,0.518,6.314,2.162
8.101,-1.295,-10.98,0.814,5.943,0.568
11.666,-1.547,-10.453,0.724,4.84,-0.518
14.644,-1.592,-9.492,0.496,3.258,-0.771
16.618,-1.442,-9.304,0.176,1.348,-0.447
17.612,-1.754,-10.732,-0.367,-0.635,0.003
17.371,-2.34,-11.482,-0.808,-2.704,0.198
16.653,-2.752,-10.993,-1.142,-4.773,-0.227
14.717,-2.648,-9.847,-1.047,-6.407,-1.323
11.085,-0.598,-5.881,-1.082,-7.692,-3.149
7.647,5.119,-4.605,-1.292,-7.377,-4.592
5.905,7.052,-2.341,-0.686,-4.401,-4.076
5.19,9.622,-0.695,-0.336,-1.968,-2.585
5.833,12.208,-1.457,-0.455,0.614,-0.385
5.952,11.449,-5.245,-0.41,3.358,2.459
5.104,6.247,-5.086,0.136,5.459,4.436
4.581,4.479,-7.779,0.038,5.427,4.152
4.76,2.408,-9.868,0.493,6.316,2.787
6.85,-0.62,-9.468,1.093,6.81,1.389
10.265,-3.322,-7.799,1.188,5.96,0.285
12.643,-4.044,-6.346,0.896,4.671,-0.213
15.214,-4.079,-3.752,0.412,3.421,-0.189
17.637,-4.382,-3.622,-0.315,1.615,0.404
19.106,-4.625,-6.054,-1.044,-0.698,0.676
18.44,-5.768,-6.378,-1.363,-2.823,0.6
15.522,-7.151,-4.889,-2.003,-4.678,-0.231
11.301,-5.996,-4.224,-3.21,-6.469,-1.35
4.586,0.528,-4.643,-4.273,-7.827,-2.732
1.384,7.645,-0.362,-3.822,-5.098,-4.095
2.359,10.762,1.224,-3.314,-2.603,-3.494
4.286,15.055,-0.459,-2.409,-0.949,-1.758
5.097,16.605,-2.157,-1.008,1.613,0.439
7.134,11.013,-2.103,0.259,4.95,2.692
6.538,4.541,-4.747,-0.172,4.95,4.532
4.981,4.638,-7.754,-0.503,5.505,4.078
6.188,2.767,-8.502,-0.495,6.95,2.829
10.57,1.026,-8.558,-0.429,7.235,1.386
15.395,1.027,-8.646,-0.362,5.626,0.306
17.197,1.253,-8.765,-0.151,3.456,-0.076
18.882,1.019,-8.337,0.111,2.194,0.254
21.416,0.74,-9.866,0.117,-0.405,0.732
20.24,-0.019,-9.593,0.482,-3.251,1.014
17.026,-2.094,-6.895,0.392,-5.135,0.261
13.457,-1.937,-4.871,-0.131,-6.457,-1.342
10.846,3.736,-5.392,-1.106,-8.237,-3.132
5.561,6.341,-2.998,-0.789,-5.942,-3.694
3.08,8.419,-1.33,-0.66,-3.057,-3.358
2.811,11.134,-0.602,-0.323,0.436,-1.723
5.842,10.981,-0.836,-0.271,3.928,0.482
7.211,5.38,0.295,-0.02,6.61,2.127
8.609,2.369,-0.906,-0.855,6.012,2.291
10.004,1.026,-3.366,-1.658,6.11,1.343
14.572,0.551,-6.536,-1.981,5.891,-0.022
16.507,-0.271,-9.855,-1.633,4.022,-1.114
16.581,-0.625,-8.836,-1.336,3.086,-1.32
17.58,0.05,-7.056,-1.339,2.295,-1.239
19.339,1.136,-6.877,-1.237,0.966,-0.612
18.796,1.922,-7.897,-1.127,-1.143,0.125
18.213,3.733,-8.035,-0.686,-2.517,0.642
18.773,3.989,-8.576,0.376,-4.271,0.513
15.66,2.826,-6.253,1.271,-5.678,-0.645
11.499,3.079,-4.943,1.469,-5.711,-2.418
8.462,6.02,-3.48,0.74,-5.944,-4.348
5.712,7.287,-1.879,0.219,-4.285,-4.828
5.361,9.16,0.104,-0.483,-2.84,-3.757
6.831,13.809,-3.445,-0.844,-1.802,-1.235
5.617,13.724,-4.792,-0.473,0.069,1.802
4.3,7.627,-4.394,0.118,2.631,4.422
4.338,4.883,-5.153,0.095,3.47,4.948
2.215,2.487,-8.892,-0.271,4.76,3.605
5.079,-0.763,-10.045,-0.322,6.75,1.898
10.125,-2.978,-10.665,-0.737,4.971,0.237
11.572,-0.688,-11.412,-0.773,3.295,-0.874
13.523,-0.173,-10.885,-0.753,2.016,-1.112
16.41,0.898,-11.285,-0.584,0.359,-0.632
15.743,1.074,-12.626,-0.646,-2.053,-0.127
14.31,1.857,-12.561,-0.261,-3.767,-0.072
12.914,1.045,-11.456,0.069,-5.583,-0.907
9.602,1.362,-9.773,0.315,-6.699,-2.453
7.431,5.039,-6.713,0.01,-5.868,-4.354
5.848,8.139,-3.624,-0.506,-3.724,-5.12
7.002,9.395,-0.899,-0.729,-1.892,-3.983
8.593,13.883,-0.666,-0.858,-0.775,-1.46
6.476,16.248,-3.318,-0.567,0.76,1.436
4.087,11.058,-5.252,0.161,1.551,4.325
1.289,6.937,-6.387,0.709,1.282,5.477
-3.094,5.018,-9.192,0.591,2.511,4.587
-3.961,0.798,-10.919,0.628,4.801,2.55
2.094,-2.223,-10.397,0.53,5.556,0.831
5.732,-2.425,-11.983,0.16,4.375,-0.487
9.349,-2.404,-12.952,0.006,3.496,-0.8
13.039,-1.84,-14.834,-0.152,1.508,-0.786
14.139,-1.998,-17.406,-0.467,-1.584,-0.363
11.493,-1.917,-17.475,-0.878,-4.038,-0.587
10.517,-0.735,-14.11,-1.157,-5.304,-1.531
8.749,1.109,-11.727,-1.482,-6.86,-3.295
5.24,7.457,-8.029,-1.939,-6.681,-5.078
5.156,8.264,-2.429,-1.716,-3.503,-5.229
6.22,9.484,-0.039,-1.567,-2.064,-3.964
6.056,11.686,0.213,-1.343,-0.785,-1.506
5.287,12.933,-0.831,-0.981,1.362,1.346
5.486,6.874,-2.951,-0.309,3.004,4.095
2.965,6.227,-6.168,-0.266,2.718,4.758
1.596,5.072,-9.366,-0.108,4.243,4.01
2.27,2.205,-11.299,0.094,5.835,2.381
6.464,-0.698,-11.096,0.171,6.615,0.744
11.732,-1.587,-11.275,-0.149,5.524,-0.307
15.259,-1.538,-11.159,-0.411,3.631,-0.461
17.593,-0.739,-11.628,-0.501,1.601,-0.2
19.336,-0.593,-12.81,-0.56,-0.859,0.241
18.154,-1.088,-12.561,-0.55,-3.814,0.372
15.378,-0.748,-9.963,-0.438,-5.617,-0.332
12.388,-0.414,-7.88,-0.457,-6.907,-1.939
9.988,1.836,-4.391,-0.779,-7.681,-3.716
5.95,6.369,-3.585,-0.968,-6.508,-4.846
4.123,8.69,-1.695,-0.437,-3.173,-3.919
4.75,10.594,-0.627,-0.251,0.32,-1.876
6.312,11.034,-2.445,-0.562,3.158,0.463
6.063,8.179,-4.63,-0.502,4.988,2.798
5.461,3.218,-5.139,-0.527,5.378,3.93
4.662,1.665,-8.288,-1.137,5.463,2.795
6.846,0.254,-10.698,-1.177,5.463,1.113
9.276,-1.147,-10.992,-0.874,4.66,-0.258
12.037,-1.099,-11.066,-0.82,4.063,-0.951
15.474,-0.473,-11.204,-0.818,2.757,-0.965
18.197,0.17,-12.973,-0.713,0.424,-0.436
17.288,0.112,-14.293,-0.587,-2.789,-0.158
14.719,0.785,-12.956,-0.158,-4.848,-0.389
12.325,1.056,-10.551,0.155,-6.389,-1.636
10.598,2.107,-7.349,0.086,-7.036,-3.283
7.432,7.599,-5.86,-0.787,-7.061,-4.591
5.737,8.305,-2.565,-0.346,-3.847,-3.879
5.928,10.884,-0.933,-0.353,-1.859,-2.153
5.435,12.717,-2.136,-0.555,0.532,0.207
4.641,11.903,-5.325,-0.425,3.248,2.722
4.441,5.054,-4.363,0.249,4.774,4.422
2.536,4.019,-7.339,-0.59,4.388,3.627
3.591,2.279,-11.188,-0.776,5.738,2.016
6.94,-0.095,-12.226,-0.714,5.604,0.642
9.158,-0.611,-11.996,-0.743,4.389,-0.369
12.505,0.071,-13.634,-0.708,3.434,-0.668
16.19,0.698,-15.737,-0.521,1.492,-0.241
16.123,0.125,-16.273,-0.465,-1.169,0.233
15.296,0.656,-15.564,-0.278,-3.071,0.024
13.865,0.962,-12.756,0.15,-4.845,-1.027
11.547,2.622,-8.912,0.531,-5.997,-2.853
10.352,7.132,-6.374,0.439,-6.444,-4.596
7.534,9.124,-1.977,1.129,-3.629,-4.254
7.738,9.591,0.571,0.964,-0.892,-2.683
8.808,10.961,0.637,-0.052,1.268,-0.602
8.812,10.34,-2.203,-1.005,3.231,1.917
6.605,4.774,-2.083,-1.353,4.747,3.941
6.347,2.966,-5.892,-2.524,3.982,3.459
6.258,3.365,-10.279,-2.562,4.133,1.858
7.85,1.721,-12.643,-1.97,4.311,0.668
9.646,0.682,-12.602,-1.538,3.709,-0.297
12.155,1.588,-13.495,-1.219,3.073,-0.71
14.473,1.869,-13.754,-0.985,1.612,-0.499
13.915,2.301,-14.44,-1.187,-0.912,-0.104
11.565,3.5,-15.027,-1.251,-2.913,-0.33
9.119,4.142,-15.471,-0.798,-4.335,-1.329
7.167,5.712,-13.301,0.147,-5.136,-3.171
6.0,7.632,-9.329,0.764,-4.757,-5.015
5.861,10.843,-7.713,1.047,-2.873,-6.179
6.402,10.884,-3.855,1.483,-0.058,-5.295
9.445,11.808,0.117,0.915,1.369,-3.096
10.646,12.975,0.723,-0.585,2.165,-0.173
9.189,11.793,-2.527,-1.645,3.038,2.606
7.211,6.594,-2.565,-2.12,2.969,4.409
5.621,5.866,-6.546,-2.758,2.361,3.834
5.115,5.097,-10.862,-2.491,3.609,2.384
6.706,1.959,-12.703,-1.825,4.7,1.094
9.848,-0.615,-14.537,-1.314,3.96,-0.088
11.675,0.294,-13.514,-1.034,2.923,-0.443
14.336,0.283,-14.321,-0.76,1.635,-0.321
15.593,0.703,-15.918,-0.564,-0.64,0.113
14.153,1.386,-17.013,-0.256,-2.992,0.082
12.44,2.085,-13.507,-0.023,-4.379,-0.499
11.018,1.883,-12.761,0.233,-5.527,-2.029
9.097,3.247,-8.807,0.448,-6.14,-3.585
6.219,6.849,-4.62,0.029,-6.051,-5.175
5.72,7.065,-1.582,0.05,-2.892,-4.529
7.801,9.667,-0.561,-0.082,-1.063,-2.627
8.636,12.465,-0.909,-0.401,0.456,-0.182
7.243,11.773,-2.928,-0.731,2.941,2.469
7.412,6.466,-4.537,-0.766,5.155,4.595
7.17,5.869,-7.269,-1.346,4.507,4.082
7.091,4.526,-10.864,-1.437,5.148,2.536
8.817,1.346,-12.582,-1.359,5.579,1.211
12.408,0.227,-14.32,-1.277,4.04,0.004
13.493,0.883,-14.017,-1.134,2.362,-0.395
14.654,1.561,-14.775,-0.743,0.851,-0.259
14.309,1.759,-15.356,-0.434,-0.871,0.25
13.3,2.635,-16.535,0.118,-2.385,0.376
11.307,2.546,-14.423,0.891,-3.464,0.033
10.213,2.457,-12.858,1.722,-4.103,-1.215
9.289,2.87,-8.915,2.214,-4.656,-2.67
7.455,4.344,-4.795,1.972,-4.845,-4.353
5.758,6.732,-2.522,1.53,-2.878,-4.489
7.121,8.362,-0.526,1.032,-0.747,-3.171
8.835,10.441,0.26,-0.08,-0.018,-1.042
7.021,11.018,-1.796,-1.203,0.974,1.305
6.106,8.17,-4.503,-1.591,2.694,3.574
5.607,4.146,-5.041,-1.966,2.467,3.846
4.542,3.412,-7.663,-2.455,2.873,2.654
5.618,1.748,-10.285,-2.308,4.192,1.312
9.315,0.049,-10.703,-2.152,4.465,0.183
11.589,-0.486,-13.501,-2.097,3.158,-0.7
13.617,1.48,-13.899,-1.809,2.134,-0.382
14.568,1.403,-16.179,-1.424,0.113,-0.018
13.214,2.783,-17.969,-0.939,-1.872,0.173
12.305,3.507,-19.48,-0.368,-3.331,0.019
11.835,4.651,-16.168,0.461,-4.364,-0.532
9.693,4.127,-13.609,1.124,-5.385,-2.511
8.349,6.816,-9.041,1.596,-4.82,-4.333
7.462,9.789,-6.57,1.638,-3.35,-5.682
6.475,9.871,-1.989,1.959,-0.444,-4.902
6.675,10.628,1.191,1.271,1.318,-3.349
8.438,11.577,1.538,-0.053,2.713,-0.919
8.17,9.155,-0.611,-1.451,3.208,1.498
6.608,3.436,-1.336,-2.44,3.057,3.28
6.129,2.422,-4.471,-3.636,2.216,2.597
6.89,2.657,-8.917,-3.942,2.987,1.407
8.823,1.672,-11.376,-3.468,3.724,0.332
10.622,1.286,-11.708,-2.783,3.621,-0.501
12.902,2.133,-11.351,-2.138,3.298,-0.967
14.397,3.094,-12.605,-1.541,2.127,-0.733
14.048,2.79,-13.654,-1.057,0.312,-0.219
12.813,3.799,-15.942,-0.57,-1.643,-0.02
12.257,4.221,-16.747,-0.013,-3.377,-0.291
10.591,5.179,-16.424,0.634,-4.737,-1.409
9.354,6.843,-13.023,1.284,-5.113,-3.15
8.103,10.626,-9.483,1.568,-4.705,-5.06
7.82,10.721,-5.44,1.701,-2.069,-5.327
7.304,11.203,-1.468,1.594,-0.155,-4.244
8.375,12.234,0.997,0.929,1.376,-2.026
8.185,10.997,-0.003,-0.162,2.487,0.677
8.221,6.357,-1.609,-0.984,3.429,3.18
5.755,3.842,-3.046,-1.808,2.233,3.832
4.491,2.256,-6.356,-2.549,2.878,3.042
6.024,1.149,-10.581,-2.702,4.017,1.612
8.898,-0.558,-12.017,-2.388,4.018,0.404
9.818,-0.563,-11.517,-2.13,3.205,-0.413
12.025,0.626,-12.121,-1.814,2.739,-0.707
13.635,1.298,-12.577,-1.393,1.373,-0.503
12.746,1.531,-13.827,-1.006,-0.597,0.001
11.372,3.125,-16.268,-0.576,-1.881,0.215
11.338,3.425,-16.96,0.271,-3.137,-0.009
9.629,2.636,-14.749,0.964,-4.492,-1.136
8.876,3.563,-12.48,1.488,-4.723,-2.6
7.828,5.36,-8.281,1.489,-4.79,-4.359
5.909,7.619,-4.31,1.184,-2.88,-5.148
6.462,8.224,-0.85,0.856,-0.297,-4.179
9.456,11.217,0.141,0.01,0.333,-1.877
8.138,12.807,-0.043,-0.88,0.515,0.784
6.436,9.933,-2.516,-1.317,1.962,3.526
5.182,5.297,-2.776,-1.664,1.743,4.759
2.842,5.357,-6.431,-2.381,1.843,3.901
2.523,4.105,-10.645,-2.386,3.763,2.312
5.334,1.794,-13.385,-2.37,4.288,0.876
7.203,4.262,-12.048,-2.179,3.899,-0.019
11.298,5.386,-12.932,-2.009,2.965,-0.36
13.609,5.876,-13.376,-1.43,0.519,0.126
12.491,6.871,-14.48,-0.697,-1.4,0.781
10.759,6.696,-14.01,0.256,-2.461,1.039
9.78,3.143,-12.302,0.819,-4.349,0.229
5.763,2.638,-10.325,1.047,-5.663,-1.258
4.221,2.968,-7.362,0.87,-5.26,-3.199
2.507,6.228,-5.033,-0.279,-5.243,-5.072
2.1,8.297,-0.577,-0.042,-2.605,-5.002
4.831,10.727,0.705,-0.139,0.551,-3.415
8.332,11.621,0.977,-0.743,2.34,-1.283
7.673,10.499,-0.689,-1.349,3.619,0.779
7.619,2.594,-0.794,-1.387,5.472,2.336
9.766,0.171,-4.08,-2.722,4.833,1.397
11.073,-0.52,-8.798,-3.633,3.63,-0.115
10.782,-2.087,-16.353,-3.546,3.28,-1.24
13.142,-1.959,-15.159,-3.212,2.836,-1.293
15.62,0.617,-14.852,-2.794,1.286,-1.318
16.126,1.811,-15.68,-1.975,-0.049,-0.26
16.201,2.38,-16.821,-0.813,-1.145,0.806
15.247,3.914,-12.158,0.591,-2.346,1.584
13.787,1.812,-11.337,1.698,-3.739,1.213
12.007,-0.28,-9.482,2.235,-5.01,0.523
9.338,-1.02,-6.931,1.504,-6.529,-1.064
5.008,2.153,-3.702,-0.067,-7.494,-2.613
3.434,4.836,-1.614,-1.017,-5.625,-3.625
3.179,7.901,-1.677,-1.164,-3.283,-3.159
2.979,12.979,-0.829,-0.68,0.03,-1.576
5.978,12.156,-1.308,-0.453,3.522,0.696
7.913,6.852,-1.806,0.019,6.663,2.163
8.876,1.789,-2.722,-0.327,6.531,2.596
9.61,-0.624,-5.25,-1.455,6.232,1.543
13.092,-3.321,-8.019,-2.449,6.116,0.128
14.731,-4.49,-13.073,-2.556,4.16,-1.36
14.755,-3.171,-11.844,-2.298,2.368,-1.525
15.681,-1.266,-12.031,-1.99,1.75,-1.283
18.032,-0.213,-11.873,-1.233,1.139,-0.498
19.022,-0.515,-12.748,-0.594,-0.927,0.568
17.089,0.319,-8.877,0.315,-1.906,1.685
17.104,-1.297,-8.707,1.119,-3.481,1.558
15.78,-2.242,-6.168,1.547,-5.216,0.83
11.841,-2.444,-3.515,0.91,-7.059,-0.592
6.166,1.54,-1.632,-0.425,-7.718,-2.179
3.585,4.917,-1.472,-0.969,-5.451,-3.077
2.888,8.616,-1.185,-0.919,-3.021,-2.667
3.281,12.76,-1.804,-0.628,0.125,-1.048
4.128,10.923,-2.903,-0.475,3.618,1.1
7.526,5.112,-3.214,0.263,6.64,2.511
7.879,-0.078,-2.424,0.117,6.108,2.672
7.705,-3.728,-3.77,-0.802,6.254,1.41
11.183,-5.928,-5.203,-1.62,6.467,-0.246
15.588,-5.246,-7.579,-1.57,4.549,-1.661
15.896,-3.604,-6.797,-1.637,2.532,-1.97
18.136,-1.838,-7.458,-1.706,1.986,-1.756
22.108,-1.55,-8.069,-1.442,0.95,-0.733
21.992,-3.142,-9.031,-1.244,-1.856,0.431
19.57,-3.424,-6.394,-0.78,-3.13,1.314
18.231,-4.595,-4.928,-0.059,-4.605,1.182
14.926,-5.054,-2.333,0.085,-6.353,0.155
10.518,-2.431,-0.426,-0.233,-7.674,-1.418
6.179,3.587,-2.671,-0.7,-7.861,-2.741
3.619,8.073,-0.986,-0.079,-4.67,-2.812
4.081,10.099,-0.504,0.051,-1.177,-1.849
6.261,10.874,-2.264,-0.23,1.71,-0.218
6.21,8.343,-3.889,-0.329,4.596,1.34
6.106,1.821,-1.508,-0.24,7.274,1.743
10.093,-0.569,-3.753,-1.329,6.984,0.59
11.876,-1.689,-7.486,-2.148,5.734,-0.856
14.373,-1.767,-10.329,-2.036,5.104,-1.851
17.982,-1.324,-10.258,-1.904,3.246,-1.976
22.387,0.634,-11.101,-1.487,1.522,-0.995
23.235,-0.088,-13.699,-1.138,-1.239,0.522
20.992,0.067,-12.42,-0.323,-3.481,1.342
15.763,-1.458,-7.843,0.153,-5.738,0.661
11.335,-0.419,-6.3,0.391,-6.335,-1.083
8.145,2.465,-3.964,-0.187,-6.907,-3.223
3.94,4.857,-2.085,-0.601,-5.212,-4.13
5.145,6.426,-0.173,-0.806,-3.903,-3.423
6.334,12.11,-2.381,-0.606,-2.428,-1.251
3.593,11.631,-4.219,-0.079,0.415,1.468
2.701,5.302,-4.685,0.718,3.161,3.655
2.893,1.532,-4.41,1.064,4.327,3.678
2.03,-0.461,-6.834,0.943,6.011,2.12
6.162,-4.539,-6.313,0.659,7.727,0.526
14.225,-5.937,-6.548,0.224,5.622,-0.763
18.373,-4.069,-7.394,-0.068,3.248,-0.97
22.14,-4.459,-10.023,0.029,0.863,-0.064
23.95,-4.913,-11.021,0.37,-2.13,1.215
18.582,-7.141,-8.363,0.441,-5.321,1.449
11.865,-6.777,-5.712,-0.274,-6.539,0.591
9.491,-1.703,-5.482,-1.246,-7.658,-0.937
5.354,4.319,-0.949,-0.984,-5.352,-1.757
3.546,8.766,1.937,-0.624,-2.193,-1.471
5.021,12.225,-0.03,-0.626,1.3,-0.045
8.24,11.842,-2.096,-0.022,4.294,1.596
5.327,5.412,-1.986,0.961,6.708,2.597
4.026,-0.575,-3.683,0.406,6.946,1.531
8.649,-3.272,-3.744,-0.191,7.279,-0.441
14.435,-5.123,-5.587,-0.589,5.47,-2.158
18.148,-5.005,-5.65,-0.752,3.087,-2.571
24.93,-4.94,-8.241,-0.548,2.137,-1.502
28.59,-5.834,-6.485,-0.085,-1.327,0.583
18.272,-11.042,-4.671,-0.696,-4.819,0.81
14.024,-5.293,-3.872,-1.221,-6.503,0.119
8.674,5.132,-6.363,-1.239,-6.57,-0.713
5.67,11.964,-1.133,-0.206,-4.541,-0.912
1.997,15.571,0.446,-0.1,-1.048,-0.619
9.264,18.561,0.13,0.036,2.445,0.93
9.521,12.978,0.363,0.513,5.121,1.837
11.249,1.851,2.216,0.905,6.47,1.542
13.663,-2.504,0.188,-0.018,6.47,-0.222
21.802,-5.532,-5.697,-0.488,4.555,-1.969
23.114,-4.951,-8.776,-0.466,2.149,-2.407
26.487,-4.531,-12.5,0.025,0.982,-1.342
30.157,-3.665,-11.496,0.573,-1.079,0.648
23.493,-7.562,-6.994,0.478,-4.572,1.47
14.911,-3.482,-5.018,0.149,-6.148,0.934
12.762,1.31,-3.019,-1.024,-7.235,-0.434
7.184,5.887,1.606,-0.487,-6.098,-1.135
3.064,10.203,2.672,-0.042,-3.327,-1.271
3.617,13.416,-0.101,0.327,0.165,0.235
7.458,9.318,1.132,0.688,3.656,1.764
6.352,2.96,-1.79,2.155,5.941,2.731
6.239,-2.853,-5.889,1.676,5.671,1.99
9.155,-7.461,-7.741,1.174,6.393,0.486
16.337,-9.584,-11.982,0.498,4.195,-0.732
16.664,-10.533,-15.85,0.261,1.3,-0.741
18.318,-10.781,-16.209,0.46,-0.985,-0.146
17.568,-12.876,-10.258,0.08,-3.362,0.114
12.036,-10.936,-7.467,-1.688,-6.854,-0.385
5.307,2.106,-9.813,-2.735,-8.017,-1.056
4.162,8.69,-3.602,-1.772,-5.916,-1.205
1.735,14.33,0.254,-1.284,-2.815,-0.885
2.834,18.049,-1.222,-0.862,0.677,0.706
6.362,16.185,-2.056,0.282,4.17,2.185
8.901,2.918,1.881,1.554,6.681,2.439
9.695,-1.996,-2.54,1.143,6.848,1.342
14.583,-6.074,-5.577,0.675,6.628,-0.105
17.854,-7.205,-7.384,0.15,4.482,-1.626
19.07,-6.899,-8.681,-0.168,2.26,-1.995
25.554,-6.369,-11.195,-0.3,1.384,-0.846
27.347,-6.375,-9.664,-0.27,-1.482,1.128
20.525,-9.286,-3.736,-0.541,-4.362,1.467
16.105,-5.369,-3.403,-1.237,-5.709,0.299
13.584,4.652,-6.348,-1.468,-6.597,-0.294
7.556,11.922,-1.574,-0.281,-5.138,-0.44
2.589,14.239,1.993,0.143,-1.646,-0.423
6.361,16.405,-1.335,0.245,1.847,0.502
8.588,11.539,-2.164,1.275,4.336,1.913
7.678,-1.103,0.696,2.02,6.146,1.591
8.05,-5.986,-1.865,0.947,6.395,-0.181
15.245,-9.215,-5.957,0.165,5.364,-1.845
17.444,-8.612,-8.361,-0.212,2.937,-2.439
19.067,-8.294,-9.804,-0.46,1.552,-1.966
24.036,-7.324,-11.233,-0.62,0.175,-0.575
23.967,-9.381,-9.351,-0.403,-3.301,0.935
16.405,-9.659,-5.498,-0.6,-5.762,0.757
11.932,-5.835,-4.218,-1.208,-6.827,-0.632
7.636,2.455,-3.327,-1.786,-7.932,-1.845
2.734,8.106,-0.226,-0.718,-5.254,-2.242
-0.797,12.473,2.004,-0.178,-1.761,-1.919
1.851,13.707,2.284,0.173,1.731,-0.443
4.275,9.9,2.863,1.007,5.224,0.955
8.495,0.694,5.085,1.945,7.307,1.47
9.328,-5.003,3.946,1.277,5.789,0.562
14.265,-9.033,1.613,0.951,5.714,-0.883
18.479,-11.764,-1.382,0.874,3.894,-1.835
20.648,-13.27,-2.353,0.634,1.629,-1.496
21.09,-14.672,-2.698,-0.187,0.702,-0.381
22.202,-14.481,-1.288,-0.955,-1.079,1.174
17.457,-14.689,1.144,-1.776,-4.496,1.868
10.419,-11.411,2.361,-2.758,-6.169,1.139
8.692,-4.258,4.173,-3.84,-7.396,0.057
2.974,4.173,3.551,-3.224,-7.504,-0.71
1.111,10.43,2.81,-1.621,-4.693,-1.206
-0.221,13.321,2.454,-0.639,-1.2,-0.802
1.919,13.053,7.257,0.499,2.292,0.311
5.516,7.087,8.164,2.149,5.785,0.487
10.664,1.4,9.145,2.283,6.314,-0.419
14.325,-2.355,9.363,1.1,6.801,-1.656
27.756,-6.695,7.585,0.449,5.354,-2.191
33.316,-6.93,2.522,-0.231,1.877,-1.605
31.6,-6.372,0.941,-0.812,-0.617,0.294
29.618,-5.824,3.854,-1.203,-2.195,1.941
23.761,-7.407,6.666,-1.895,-5.687,2.382
12.319,-0.704,7.018,-2.749,-7.732,1.5
5.898,6.04,6.601,-2.302,-6.718,0.338
1.197,10.941,6.456,-1.149,-4.223,-0.576
1.598,11.851,5.872,-0.627,-0.731,-0.371
6.752,12.852,2.791,-0.122,2.762,0.456
7.494,7.714,0.652,0.703,5.571,1.119
9.315,0.442,-0.925,0.572,7.376,0.39
15.308,-2.924,-2.227,-0.145,6.802,-0.898
18.154,-4.397,-6.214,-0.567,4.939,-2.232
17.74,-5.405,-9.386,-0.652,2.988,-2.551
24.779,-5.216,-12.099,-0.773,2.148,-1.58
28.11,-4.658,-12.624,-0.549,-0.274,0.447
23.425,-5.948,-9.758,-0.381,-3.193,1.835
18.543,-5.928,-4.847,-0.441,-4.822,1.662
16.75,-0.445,-2.956,-0.354,-6.358,0.128
8.783,5.835,0.96,0.383,-6.837,-0.981
4.002,9.466,3.539,0.887,-4.139,-1.286
2.805,10.844,3.311,0.618,-0.647,-0.948
6.754,9.834,0.216,0.415,2.846,-0.363
8.278,3.674,1.173,0.495,5.396,0.782
10.379,-2.398,0.152,-0.101,5.772,0.454
12.466,-5.417,-1.507,-0.55,5.528,-1.063
18.54,-8.432,-6.265,-0.607,3.904,-2.299
19.039,-8.166,-9.337,-0.409,1.662,-2.148
21.262,-7.839,-11.975,-0.353,0.624,-1.238
22.605,-8.1,-10.805,-0.208,-0.758,0.179
20.7,-8.784,-8.43,-0.217,-3.625,1.035
13.066,-7.452,-3.429,-0.298,-5.494,0.551
9.542,-2.936,-1.091,-0.506,-6.082,-1.012
4.647,6.986,-1.42,-0.509,-7.01,-2.103
2.234,11.291,-0.344,0.092,-4.2,-1.68
2.099,12.747,-1.022,-0.143,-0.707,-0.674
5.575,12.826,-3.596,-0.417,2.785,0.547
7.481,8.905,-3.842,-0.293,4.66,1.793
8.425,-0.499,-1.318,-0.442,5.685,1.917
10.359,-4.779,-6.107,-1.292,5.024,0.355
19.27,-7.396,-11.092,-1.191,3.788,-0.026
19.743,-7.799,-14.135,-0.746,0.947,0.451
18.63,-8.53,-14.446,-0.081,-0.866,1.319
16.927,-10.149,-11.679,0.423,-2.481,1.698
13.172,-9.77,-6.056,0.105,-4.723,1.48
6.183,-4.09,-2.709,-0.528,-6.979,-0.471
3.691,4.082,-0.261,-0.378,-6.648,-1.351
2.869,8.819,1.573,-0.16,-4.429,-1.249
3.483,11.124,0.545,-0.446,-0.937,-0.422
7.561,11.77,-1.552,-0.149,2.164,0.485
7.366,6.467,-1.092,0.62,4.695,1.411
8.901,-1.193,-0.393,0.357,5.568,0.654
10.664,-4.417,-2.403,-0.485,5.291,-1.139
18.631,-6.124,-6.119,-0.78,3.928,-2.121
21.252,-6.839,-9.492,-0.908,1.749,-1.647
21.972,-6.613,-11.159,-0.969,0.794,-0.173
21.237,-7.897,-11.279,-0.736,-1.009,1.458
18.384,-10.039,-7.809,-0.418,-3.676,2.282
10.285,-8.439,-3.671,-1.061,-5.804,1.563
6.722,-0.611,-2.378,-2.069,-7.119,0.151
3.06,5.393,-0.11,-1.386,-6.128,-0.751
3.41,10.219,1.292,-0.803,-3.082,-0.64
3.803,12.715,-1.063,-0.684,0.41,0.377
6.692,12.066,-3.21,0.193,3.903,1.723
4.806,3.748,-2.076,1.599,6.204,2.258
6.346,-1.535,-3.17,0.946,6.496,1.215
9.803,-4.347,-6.176,0.446,6.806,-0.407
16.98,-8.03,-9.32,0.189,5.054,-1.334
20.363,-9.297,-11.446,0.183,3.112,-0.948
23.407,-9.742,-10.47,0.079,1.634,0.434
22.712,-10.68,-7.244,-0.11,-1.225,1.847
16.085,-11.73,-2.955,-0.774,-4.633,2.087
10.18,-5.51,-0.456,-1.45,-5.901,1.09
7.733,3.353,0.398,-2.596,-7.452,-0.135
3.708,10.232,1.176,-1.896,-6.055,-0.712
3.213,13.919,0.012,-1.118,-2.867,-0.383
5.993,12.948,-2.29,-0.81,0.626,0.58
7.058,9.947,-2.413,-0.386,3.543,1.634
4.081,2.72,-1.881,0.737,6.748,1.165
10.078,-0.731,-3.651,0.183,7.864,-0.122
18.908,-4.183,-7.246,-0.39,7.432,-0.969
24.968,-4.224,-10.11,-0.424,5.24,-0.706
27.486,-4.383,-10.383,-0.113,2.798,0.456
29.731,-4.466,-8.386,0.042,-0.407,2.198
24.952,-6.297,-4.799,0.071,-3.742,3.129
15.224,-4.871,0.559,-0.506,-6.498,2.302
8.13,2.553,3.783,-1.097,-7.5,0.669
3.733,5.908,3.555,-1.349,-6.334,-0.464
2.61,10.458,3.567,-1.224,-3.414,-0.463
3.585,13.224,-0.015,-1.466,0.078,0.312
6.991,11.911,-2.82,-1.096,3.571,1.553
9.734,3.977,-2.733,-0.262,6.627,2.056
12.416,0.283,-1.167,0.189,7.638,1.268
17.969,-5.54,-2.143,0.267,7.379,0.047
24.189,-10.796,-3.932,0.173,4.52,-0.629
27.245,-11.49,-5.619,0.377,1.708,-0.202
28.71,-9.952,-5.092,0.523,-1.615,0.988
25.951,-10.391,-2.603,0.22,-4.74,1.622
17.602,-7.369,-2.08,-0.604,-7.379,1.191
11.31,0.115,0.082,-1.081,-8.012,0.031
5.584,6.095,1.887,-0.594,-5.854,-0.898
2.841,11.119,1.735,-0.289,-2.7,-0.77
3.142,12.711,-0.535,-0.376,0.793,0.349
7.886,10.65,-1.221,-0.151,4.264,1.369
7.625,3.682,-2.133,0.488,6.51,1.76
9.435,-1.525,-3.131,-0.021,5.988,1.014
11.754,-5.993,-5.198,-0.443,5.782,-0.751
15.869,-7.539,-6.493,-0.153,4.245,-2.13
15.891,-7.796,-7.275,0.072,2.392,-2.377
20.509,-6.965,-7.72,-0.045,1.836,-1.471
25.241,-8.324,-9.22,-0.056,0.11,0.31
23.028,-9.811,-6.312,0.074,-2.871,1.76
17.728,-9.808,-3.236,-0.311,-4.827,1.586
14.838,-4.953,-2.405,-0.75,-6.466,0.399
10.058,2.857,-2.122,-1.05,-7.659,-0.441
5.376,9.946,1.334,-0.337,-5.509,-0.647
3.992,14.804,-0.252,-0.196,-2.093,-0.263
5.88,14.458,-1.325,-0.166,1.399,1.092
9.905,9.936,-2.133,0.069,4.892,2.154
11.769,1.871,-1.869,0.273,6.355,2.123
12.915,-2.417,-5.981,-0.445,6.457,0.775
18.17,-6.263,-7.377,-0.634,5.462,-0.43
19.359,-5.427,-9.423,-0.359,3.142,-1.243
15.807,-5.457,-9.991,-0.174,1.187,-1.047
