ax,ay,az,gx,gy,gz
-7.26,4.037,2.166,-0.048,-0.007,-0.52
-7.297,4.0,2.133,-0.027,0.033,-0.571
-7.4,3.975,2.137,0.011,0.026,-0.581
-7.669,3.895,2.137,0.067,0.051,-0.556
-7.77,3.798,2.133,0.134,0.092,-0.495
-7.854,3.615,2.065,0.2,0.097,-0.407
-8.068,3.376,1.96,0.266,0.058,-0.284
-8.923,3.013,1.542,0.205,0.049,-0.071
-8.981,2.68,1.306,0.043,0.12,0.289
-9.076,2.473,1.188,-0.228,-0.101,0.716
-8.968,2.373,1.266,-0.529,-0.206,1.203
-8.393,2.181,1.403,-0.879,-0.021,1.622
-7.314,1.833,1.787,-1.279,0.603,1.757
-5.334,1.432,1.976,-1.697,1.441,1.087
-5.634,0.189,0.912,-2.416,1.373,0.036
-7.144,0.08,0.877,-3.307,1.318,-1.501
-10.954,3.584,3.136,-3.919,1.457,-3.298
-14.075,10.999,6.998,-3.155,1.78,-4.679
-21.84,17.022,16.907,-0.912,2.631,-4.019
-26.396,15.602,31.038,1.733,3.822,-1.596
-32.898,8.563,42.594,4.576,4.667,1.226
-30.717,-4.352,45.333,7.149,5.028,3.624
-29.108,-19.801,39.391,7.254,3.838,5.215
-23.394,-29.394,26.595,4.832,1.902,4.913
-19.88,-27.504,12.927,1.693,0.756,2.916
-13.305,-18.381,3.427,-1.552,0.413,1.261
-10.575,-6.746,1.5,-4.381,1.385,0.422
-6.567,2.28,4.793,-5.774,2.696,-0.006
-3.865,7.139,7.672,-5.857,3.784,-0.155
0.627,8.549,7.118,-5.016,4.871,-0.472
3.631,6.231,2.046,-4.249,4.023,-1.532
-0.378,4.593,-1.289,-4.107,2.181,-3.06
-5.105,5.594,-2.672,-3.841,2.233,-4.832
-11.467,8.375,-0.055,-3.842,1.671,-6.392
-21.631,10.137,12.417,-2.719,2.186,-6.459
-26.662,9.969,28.559,-0.41,3.583,-3.745
-32.373,0.665,41.83,2.33,3.102,-0.656
-33.337,-17.035,47.483,4.753,2.0,1.927
-29.377,-31.097,41.566,6.088,1.487,3.905
-23.112,-37.519,27.563,4.869,-0.243,4.201
-23.87,-35.062,15.525,2.136,-1.786,2.422
-16.729,-24.626,4.179,-0.461,0.13,1.414
-11.705,-8.198,-0.096,-3.085,1.046,1.425
-9.565,2.474,4.01,-4.354,2.008,1.832
-6.067,6.498,6.412,-4.089,3.304,2.411
0.999,4.63,4.108,-3.053,4.96,2.238
4.886,3.39,-0.094,-2.457,3.743,0.822
2.565,3.395,-3.103,-2.136,2.254,-1.244
-0.095,5.259,-4.554,-1.95,2.066,-3.628
-2.74,10.166,-2.434,-2.231,1.478,-5.614
-12.531,15.304,9.053,-1.473,0.798,-6.374
-21.043,12.297,24.168,0.405,2.111,-3.95
-27.204,-1.84,33.092,2.708,2.686,-0.986
-27.013,-17.921,32.727,4.843,2.592,1.059
-24.487,-30.924,27.747,5.773,2.547,2.887
-18.733,-39.412,15.086,4.635,1.503,4.003
-15.158,-36.179,3.027,2.277,-0.066,2.718
-8.59,-21.403,-3.441,-0.399,-0.061,1.94
-6.255,-7.127,-1.85,-2.802,0.04,2.514
-6.373,1.256,2.084,-3.747,0.525,2.988
-2.241,4.853,4.619,-3.722,2.157,2.903
2.737,5.258,2.818,-3.182,3.511,1.961
4.493,5.424,0.144,-2.454,3.241,0.083
1.637,5.868,-1.19,-2.228,1.685,-1.98
-2.002,8.175,-1.679,-1.837,1.957,-4.283
-5.469,9.615,-2.326,-1.647,1.316,-6.093
-14.332,12.891,8.206,-1.188,1.127,-6.967
-23.442,10.78,21.454,0.194,2.721,-4.572
-31.272,0.388,35.042,2.51,3.703,-1.635
-31.11,-18.415,41.032,4.546,2.646,1.847
-29.846,-31.729,38.927,5.662,2.155,3.934
-25.055,-40.797,25.992,4.898,1.075,4.856
-22.081,-40.022,15.08,2.739,-0.675,3.263
-14.083,-29.256,3.359,0.133,-0.525,2.09
-12.289,-12.44,-2.081,-2.446,-0.091,1.359
-11.651,-1.781,0.951,-4.13,1.227,1.89
-7.812,2.698,5.052,-4.335,3.141,2.453
-0.328,2.971,4.393,-3.869,4.391,2.153
1.323,1.455,1.025,-3.73,3.792,0.779
-0.616,0.897,0.041,-3.843,3.398,-1.361
-3.374,2.744,-0.008,-3.79,2.986,-3.889
-9.907,4.938,1.857,-4.136,1.406,-5.613
-15.442,11.984,9.096,-3.587,1.692,-6.427
-23.629,16.441,21.847,-1.389,2.079,-5.697
-26.208,14.112,37.383,1.303,3.723,-2.816
-35.6,3.157,52.31,3.847,3.211,0.587
-33.042,-10.854,56.481,6.646,3.481,3.8
-32.183,-27.092,48.764,7.448,1.666,5.687
-25.664,-35.751,36.293,5.761,1.646,5.982
-22.31,-34.673,19.941,3.053,-0.995,4.325
-14.421,-21.336,5.321,0.18,-1.37,3.239
-12.689,-8.165,-0.316,-2.484,-0.835,2.49
-9.613,1.189,0.729,-4.144,0.905,2.31
-7.101,5.783,2.671,-4.564,2.274,2.012
-4.184,6.746,2.812,-3.942,4.244,1.32
-0.087,2.66,0.169,-3.407,4.539,-0.177
-1.839,1.637,-0.863,-3.326,3.95,-2.378
-4.466,0.773,-1.118,-3.391,3.087,-4.427
-10.594,1.945,1.686,-3.994,1.818,-5.731
-15.559,7.956,8.12,-3.6,1.089,-6.431
-24.143,14.635,19.439,-1.483,2.121,-5.542
-26.711,12.721,32.654,1.099,3.326,-2.466
-36.142,2.424,45.636,3.731,3.725,0.843
-28.602,-10.816,46.155,6.21,3.779,3.123
-27.395,-23.448,37.635,6.101,3.099,4.685
-20.538,-31.308,26.369,3.751,1.299,4.572
-19.83,-26.543,13.953,0.922,-0.484,3.259
-9.254,-14.518,2.501,-1.676,0.002,2.309
-10.454,-2.181,0.569,-3.67,0.94,2.046
-6.657,5.258,3.91,-4.247,2.095,2.085
-3.732,7.403,5.31,-3.787,3.425,2.03
0.898,4.94,2.066,-2.979,4.207,1.161
0.346,4.845,-1.611,-2.539,3.237,-0.317
-2.654,6.759,-3.979,-2.277,2.86,-2.204
-4.797,8.267,-4.871,-2.184,2.952,-4.248
-7.404,13.807,0.564,-2.344,2.143,-5.878
-19.201,17.5,17.195,-0.976,3.093,-5.753
-24.143,14.013,33.858,1.182,2.825,-3.325
-33.431,-3.989,46.251,3.415,3.02,-0.331
-34.786,-19.227,45.893,5.275,1.374,2.595
-35.912,-32.268,38.145,5.774,1.453,4.558
-27.678,-38.48,22.78,3.994,-0.875,4.878
-24.751,-32.984,9.816,1.438,-0.555,3.652
-13.164,-16.045,-0.223,-1.054,-0.544,2.651
-10.091,-2.635,1.387,-3.117,1.105,2.238
-6.539,4.257,3.874,-3.693,2.319,2.392
-1.593,7.438,4.919,-3.369,4.591,2.244
2.872,4.449,1.005,-2.957,4.796,1.281
1.512,4.417,-1.669,-2.612,3.622,-0.027
-1.341,5.283,-4.117,-2.046,3.072,-1.935
-4.604,8.382,-5.446,-1.872,2.461,-3.841
-6.493,12.556,-1.755,-1.889,1.846,-5.448
-11.909,17.347,7.447,-0.868,0.507,-5.865
-16.706,18.15,24.116,1.279,2.513,-4.076
-27.304,7.517,41.16,3.202,1.166,-1.19
-28.72,-11.249,46.869,5.376,0.55,1.579
-32.237,-25.07,41.074,5.957,-0.914,3.713
-31.043,-32.459,31.931,4.722,-0.092,4.485
-28.731,-32.176,18.193,2.052,-1.731,3.467
-16.493,-21.557,4.76,-0.391,-0.143,2.136
-12.688,-5.013,1.517,-2.775,0.38,1.411
-8.297,3.8,4.156,-3.612,1.841,1.285
-4.488,6.393,6.459,-3.562,3.754,1.274
-0.084,3.381,4.023,-3.355,4.37,0.764
-0.237,2.605,1.87,-3.556,3.88,-0.399
-3.169,2.234,0.512,-3.841,3.762,-2.022
-7.285,3.826,1.346,-4.224,3.204,-3.767
-11.822,9.865,5.035,-4.414,2.251,-5.415
-20.748,16.533,16.972,-2.589,2.115,-6.12
-26.697,17.365,32.559,0.054,3.742,-3.625
-36.853,4.714,48.416,2.723,3.908,-0.765
-34.375,-13.238,55.336,5.487,3.369,2.465
-33.841,-29.405,49.781,7.152,2.013,4.692
-27.399,-38.507,35.883,5.758,1.447,5.684
-25.256,-40.323,19.44,3.066,-1.178,4.144
-15.094,-26.378,5.092,0.326,-1.178,3.08
-14.189,-9.476,-1.07,-2.312,0.365,2.03
-9.407,0.917,1.507,-3.941,2.034,1.93
-6.217,4.61,4.364,-4.316,2.629,2.044
-1.555,6.046,4.752,-3.824,4.117,1.759
1.105,5.429,2.359,-3.228,4.148,0.909
-0.013,5.56,0.373,-2.853,3.188,-0.064
-3.715,5.69,-0.97,-2.708,2.934,-1.28
-6.53,7.272,-1.702,-2.818,3.23,-2.984
-7.987,11.827,3.371,-3.351,3.532,-4.651
-14.459,19.667,15.258,-2.153,3.7,-5.686
-21.651,16.22,30.767,0.111,5.098,-3.663
-34.372,4.579,46.771,2.428,3.813,-1.082
-37.784,-13.578,56.533,4.945,2.473,2.271
-40.893,-29.75,48.681,6.944,1.049,4.555
-36.072,-42.506,35.031,5.715,0.06,5.399
-33.587,-39.811,19.968,2.871,-2.307,3.547
-21.094,-27.956,6.26,0.111,-0.953,2.192
-16.254,-11.286,-0.396,-2.67,0.341,1.121
-11.019,-0.562,4.519,-4.527,1.928,1.025
-8.522,3.431,8.427,-4.958,3.373,1.528
-1.173,3.944,7.539,-4.471,5.097,1.336
0.954,4.027,4.499,-4.159,3.996,0.621
-1.391,4.679,1.69,-3.882,3.552,-0.837
-3.953,7.292,0.049,-3.921,3.066,-2.609
-5.68,13.567,2.896,-3.797,2.66,-4.499
-11.37,21.177,11.303,-2.513,2.086,-5.368
-16.27,22.202,28.051,-0.066,4.013,-3.724
-27.023,14.688,43.763,2.438,2.73,-1.196
-30.531,-4.027,51.747,5.068,2.67,1.138
-32.405,-19.906,45.794,6.184,1.057,3.471
-31.043,-31.966,34.852,5.089,0.303,4.565
-29.555,-32.876,19.5,2.274,-2.296,3.169
-19.168,-24.424,5.959,-0.412,-0.569,2.158
-14.013,-8.493,-0.103,-3.078,0.116,2.166
-9.363,1.235,3.872,-4.206,2.079,2.153
-5.033,4.992,7.295,-4.42,2.745,2.462
0.085,5.256,7.13,-3.828,3.769,2.48
1.682,4.344,3.016,-3.138,3.713,1.443
-0.085,5.055,0.238,-2.718,2.976,-0.104
-3.758,6.504,-0.861,-2.584,2.64,-1.691
-7.037,10.17,-1.62,-2.54,3.02,-3.588
-9.557,17.472,3.958,-2.348,3.495,-5.277
-16.994,24.036,18.981,-0.45,3.018,-5.19
-21.52,22.062,35.398,1.797,4.288,-2.908
-32.582,8.093,47.814,4.156,3.751,-0.148
-32.709,-8.011,49.357,5.968,2.595,2.502
-35.28,-23.727,40.306,6.326,1.52,4.52
-29.745,-33.14,25.83,3.951,0.291,4.809
-26.331,-29.517,11.179,1.182,-1.449,3.599
-14.091,-16.334,-0.335,-1.482,-0.516,2.612
-10.956,-3.84,-0.067,-3.503,1.499,2.068
-5.408,3.514,4.047,-4.341,3.008,1.892
-1.193,5.18,6.022,-4.331,4.556,1.595
1.624,3.8,4.972,-3.999,4.533,0.707
-0.238,4.007,2.07,-3.669,3.224,-0.586
-4.683,6.24,0.812,-3.251,2.263,-2.032
-8.278,9.421,1.594,-2.722,2.177,-3.794
-12.748,15.82,4.837,-2.293,2.024,-5.188
-22.171,24.012,18.099,-0.265,3.788,-4.716
-29.464,18.465,33.746,1.951,3.976,-2.438
-41.353,6.924,45.438,4.084,2.433,0.311
-42.342,-12.453,44.896,5.819,1.053,3.169
-42.279,-27.645,37.573,5.995,-0.12,5.035
-36.536,-38.828,21.975,3.944,-2.496,4.499
-30.097,-31.535,9.751,1.386,-2.755,2.621
-16.002,-20.435,-1.018,-1.131,-1.671,1.387
-13.219,-4.112,-1.182,-3.395,-0.382,0.976
-8.388,4.489,3.331,-3.952,1.631,1.108
-3.094,6.889,5.881,-4.056,3.341,1.529
1.515,4.213,3.347,-3.922,3.935,1.394
2.026,2.944,2.086,-4.074,3.506,0.705
-0.104,3.687,2.198,-4.123,2.625,-0.511
-5.561,5.553,2.01,-4.169,1.99,-1.707
-9.99,8.878,4.124,-3.983,1.921,-3.171
-13.316,15.582,10.554,-3.476,2.434,-4.62
-19.612,24.221,22.894,-0.972,3.655,-4.553
-26.875,20.234,37.581,1.586,4.944,-2.372
-36.914,8.871,51.944,4.047,3.533,0.187
-38.495,-10.775,53.425,6.427,2.356,2.694
-39.504,-27.774,43.844,6.694,1.021,4.793
-35.347,-39.495,29.614,4.205,-1.081,4.653
-29.894,-33.904,15.55,1.134,-2.644,2.936
-17.508,-22.691,2.479,-1.605,-0.754,1.657
-12.559,-6.075,0.442,-4.322,0.281,1.17
-8.773,4.528,5.113,-5.174,1.589,1.189
-5.468,6.84,7.64,-5.023,4.103,1.416
-0.248,4.838,6.882,-4.419,5.245,0.941
0.79,2.857,4.913,-4.352,4.029,-0.116
-1.692,3.157,3.867,-4.34,3.561,-1.683
-4.811,4.177,2.751,-4.365,3.112,-3.65
-9.865,7.812,5.974,-4.365,2.226,-5.373
-17.157,13.224,15.561,-2.976,1.775,-6.603
-23.797,17.983,31.126,-0.303,3.599,-5.167
-32.976,4.407,46.1,2.401,3.748,-2.415
-32.942,-13.062,57.687,5.044,3.179,0.873
-31.833,-29.856,51.928,6.824,2.27,2.928
-27.648,-41.501,39.244,5.638,1.486,4.339
-25.854,-46.715,24.65,2.858,-0.916,3.343
-17.605,-32.149,11.067,0.257,-0.78,1.826
-15.476,-14.829,0.891,-2.308,-0.179,0.683
-12.023,-0.697,3.872,-4.041,0.905,0.99
-9.178,4.616,6.708,-4.261,2.351,1.577
-3.007,5.324,6.383,-4.085,4.625,1.619
1.107,3.466,5.234,-4.096,4.327,0.826
-0.069,2.741,4.851,-4.259,3.028,-0.267
-3.713,2.919,3.564,-4.355,2.536,-1.595
-7.999,4.665,3.908,-4.584,1.965,-2.915
-12.327,8.7,5.871,-4.425,1.604,-4.395
-18.163,19.862,14.111,-3.234,2.21,-5.037
-26.41,21.613,28.612,-0.507,4.273,-3.116
-37.304,11.348,44.428,2.046,4.523,-0.657
-37.97,-6.145,54.078,4.757,3.718,2.087
-37.511,-23.678,49.53,6.173,1.558,4.224
-35.38,-39.134,37.718,5.194,-0.037,5.101
-30.471,-41.612,22.773,2.213,-1.901,3.379
-19.111,-30.12,10.203,-0.505,-1.536,1.876
-15.455,-12.865,1.322,-3.133,-0.905,0.866
-12.355,0.934,4.251,-4.694,0.5,1.127
-9.434,4.746,7.216,-4.948,2.21,1.907
-2.867,4.853,7.135,-4.706,4.174,1.853
0.821,2.932,4.351,-4.772,2.562,1.113
-2.377,1.91,3.829,-5.123,1.578,0.072
-5.665,3.403,5.359,-5.144,2.605,-1.577
-9.426,6.451,6.614,-4.814,2.331,-3.362
-14.8,13.089,11.323,-3.62,2.169,-4.357
-21.098,19.105,19.139,-1.32,3.409,-4.446
-25.638,19.054,33.632,1.659,5.785,-2.953
-34.737,7.773,46.675,4.269,4.634,-0.369
-35.803,-10.839,55.125,6.595,3.616,2.712
-33.596,-30.088,47.589,7.549,1.656,4.434
-30.581,-42.244,35.653,5.802,0.878,4.583
-27.516,-43.374,20.219,2.835,-1.36,3.025
-18.758,-32.095,7.055,-0.015,-1.43,1.548
-15.266,-15.508,-1.358,-2.737,-0.989,0.518
-13.633,-2.526,2.14,-4.733,0.528,0.817
-10.088,3.521,7.221,-5.05,1.554,1.669
-3.702,5.447,7.804,-4.522,2.825,2.141
0.417,4.363,4.948,-4.112,2.994,1.62
0.122,4.457,2.611,-4.051,3.02,0.238
-2.603,5.382,1.24,-4.18,3.003,-1.529
-5.889,7.43,0.255,-4.069,2.789,-3.407
-11.391,11.083,2.996,-3.971,2.423,-4.905
-16.005,17.077,11.193,-2.543,2.943,-5.529
-22.276,18.517,27.562,0.119,4.406,-3.873
-30.942,10.112,42.825,2.833,3.555,-1.018
-34.65,-8.21,51.927,5.271,3.211,2.191
-30.982,-24.428,47.732,6.851,2.047,4.325
-29.804,-36.251,37.047,5.808,0.418,5.159
-26.678,-39.08,21.277,3.139,-1.994,3.992
-19.442,-29.888,7.815,0.439,-1.41,2.714
-13.96,-13.715,-0.225,-2.18,-0.966,1.662
-13.205,-2.003,1.597,-3.938,0.646,1.561
-9.414,3.072,5.575,-4.353,2.346,1.907
-4.202,3.739,6.346,-4.16,3.698,2.095
-0.108,2.02,4.681,-3.965,3.506,1.375
-1.037,1.971,3.115,-4.139,2.897,0.175
-4.101,1.707,2.465,-4.442,2.921,-1.379
-8.349,2.259,2.428,-4.845,2.302,-3.048
-13.706,6.496,6.259,-4.906,2.081,-4.684
-20.365,15.17,14.81,-3.589,2.847,-5.487
-26.4,17.701,29.45,-0.796,4.562,-4.033
-36.212,11.065,44.224,2.027,4.337,-1.369
-39.32,-4.395,53.333,4.839,4.332,1.744
-35.74,-19.813,49.542,6.98,3.396,4.238
-30.843,-35.63,38.547,6.552,2.1,5.291
-25.51,-40.991,22.64,4.086,-0.406,3.865
-17.488,-33.574,8.569,1.108,-1.543,1.927
-13.223,-16.441,0.37,-1.672,-1.686,0.648
-12.827,-4.933,0.853,-4.045,-0.614,0.627
-10.366,1.421,4.63,-5.151,0.887,1.304
-6.98,3.983,6.833,-5.458,2.826,2.042
-1.005,5.307,7.045,-5.056,3.813,2.354
1.687,7.07,5.688,-4.324,3.39,1.778
1.916,12.035,4.501,-3.256,2.318,0.828
1.702,15.816,2.894,-1.658,1.209,-0.109
1.34,18.789,2.022,0.538,0.935,-1.395
2.586,21.783,2.521,2.419,0.765,-2.936
-1.767,26.038,16.451,4.161,0.152,-3.777
-12.685,14.859,29.393,5.862,1.067,-2.086
-22.913,-2.904,36.984,6.985,1.835,-0.078
-23.316,-18.001,38.77,6.413,0.463,2.205
-28.339,-29.835,34.524,5.17,-0.164,3.705
-27.865,-40.462,19.705,2.722,-0.075,4.274
-21.57,-32.696,9.765,-0.467,-0.417,2.701
-13.735,-16.72,6.709,-3.641,-0.038,1.533
-13.2,-4.967,7.944,-5.58,1.811,0.812
-9.434,1.849,12.696,-6.661,3.061,0.987
-5.5,4.77,14.647,-6.706,4.738,1.232
-0.397,3.601,12.717,-6.238,5.723,0.624
0.811,2.306,8.508,-5.802,4.869,-1.095
-2.759,3.47,6.628,-5.487,3.33,-3.189
-9.277,5.206,6.538,-5.25,2.37,-4.888
-11.781,10.61,10.495,-4.045,1.296,-6.225
-19.764,13.961,19.757,-2.219,1.331,-6.995
-22.329,14.924,35.296,0.519,2.656,-5.059
-27.079,2.394,49.973,3.293,3.465,-1.756
-28.735,-15.283,58.558,6.075,3.851,1.113
-28.561,-35.05,52.231,7.729,3.237,3.058
-22.145,-45.37,38.01,6.476,2.145,4.34
-22.463,-48.249,22.282,3.428,-0.642,3.372
-19.022,-34.086,10.168,0.381,-0.856,1.96
-12.347,-17.585,2.404,-2.534,-0.246,1.168
-9.823,-2.969,6.037,-5.393,1.207,1.409
-7.128,3.976,11.022,-5.919,1.99,1.927
-2.869,7.745,10.797,-5.291,3.826,2.1
0.016,7.5,6.201,-4.421,4.021,1.353
-0.508,9.336,2.7,-3.596,3.596,-0.074
-2.899,12.689,-0.432,-2.908,3.714,-2.296
-2.363,20.679,2.955,-2.298,3.977,-4.399
-13.857,24.599,17.091,-0.384,4.059,-4.628
-21.952,15.784,33.598,1.793,2.916,-2.469
-35.936,-2.131,45.605,3.883,3.019,0.072
-34.041,-22.195,46.659,5.888,1.65,2.894
-38.29,-39.641,38.479,5.858,0.14,4.813
-30.995,-48.242,23.283,3.745,-1.488,4.634
-26.662,-38.24,10.771,0.952,-0.96,3.104
-12.211,-22.496,1.413,-1.739,-0.765,2.055
-11.525,-6.2,2.314,-4.297,0.387,1.487
-7.377,4.188,7.784,-4.932,1.634,1.67
-3.06,7.428,9.093,-4.757,3.092,2.081
1.914,5.556,4.33,-4.26,3.64,1.303
0.817,6.27,1.828,-3.957,3.46,-0.382
-1.439,6.885,-0.674,-3.681,3.174,-2.431
-6.606,7.483,-3.037,-3.549,2.563,-4.192
-10.413,10.935,0.961,-3.678,2.885,-5.568
-14.201,14.062,10.027,-2.847,2.912,-6.199
-20.087,12.196,24.913,-0.459,3.837,-4.349
-28.012,1.031,41.28,1.99,3.261,-1.299
-31.77,-17.141,52.434,4.586,3.532,1.768
-31.221,-33.771,48.11,7.023,1.902,4.225
-29.489,-45.297,38.972,6.58,1.47,5.78
-24.435,-46.388,23.972,3.847,-1.212,5.021
-18.911,-34.953,9.308,1.055,-1.091,3.746
-12.827,-17.734,1.684,-1.715,-0.808,2.735
-9.708,-4.321,4.309,-4.132,0.651,2.32
-7.181,3.602,7.529,-4.782,1.028,2.487
-5.214,6.227,8.514,-4.388,3.173,2.323
-2.317,5.339,7.209,-3.941,4.445,1.25
-2.387,5.249,4.203,-3.71,4.608,-0.693
-5.02,6.125,2.966,-3.898,3.975,-3.108
-9.635,13.557,6.989,-3.668,4.135,-5.127
-15.684,18.895,15.875,-1.638,3.456,-5.35
-22.303,18.38,31.845,0.707,3.974,-3.221
-33.575,8.355,47.585,3.245,3.108,-0.267
-40.552,-8.037,56.149,5.988,3.575,3.225
-38.303,-28.714,49.893,7.744,2.191,5.916
-35.057,-41.118,36.676,5.751,1.561,6.215
-30.542,-42.925,21.302,2.432,-1.306,4.15
-22.202,-30.198,10.048,-1.017,-0.988,2.892
-13.074,-13.662,4.478,-4.096,-0.415,1.915
-10.609,-1.022,7.005,-6.33,1.469,1.418
-5.325,7.578,12.411,-6.503,2.955,1.701
-0.562,10.208,11.328,-5.403,5.18,2.282
4.9,7.889,5.194,-4.008,5.007,1.305
1.882,7.193,0.766,-3.152,3.502,-0.357
-0.072,8.855,-1.26,-2.516,2.95,-2.419
-3.567,11.474,-0.666,-2.332,2.122,-4.463
-3.495,20.988,7.962,-1.134,1.02,-6.238
-10.365,23.505,25.351,0.92,2.04,-6.49
-13.949,19.476,41.429,3.144,4.023,-3.851
-27.848,9.774,55.104,5.311,3.261,-0.746
-30.515,-7.59,59.062,7.604,2.717,2.245
-36.948,-26.835,47.902,7.032,2.376,4.32
-33.155,-34.721,31.886,4.198,1.144,4.125
-31.779,-32.731,18.413,0.705,-2.167,1.32
-21.903,-21.244,10.775,-2.776,-1.215,-0.514
-18.846,-6.756,8.317,-6.122,-0.175,-1.359
-13.793,3.252,15.282,-7.664,1.317,-1.156
-10.403,7.529,18.201,-7.842,2.641,-0.013
-3.388,9.63,18.048,-7.085,5.061,0.975
2.698,7.814,11.819,-6.021,4.518,0.613
1.566,6.501,6.967,-5.344,3.371,-0.515
-0.824,8.683,3.632,-4.85,2.508,-2.21
-2.88,15.637,3.586,-3.891,1.491,-4.018
-5.939,23.186,9.127,-1.99,0.971,-5.288
-12.346,22.956,25.381,0.426,2.428,-5.162
-19.402,17.273,42.028,3.096,3.877,-2.687
-30.791,2.807,54.924,5.736,4.22,0.206
-32.698,-18.066,55.824,7.566,2.914,3.513
-36.169,-36.105,43.816,6.557,2.461,4.927
-33.319,-41.201,27.074,3.357,-0.316,4.284
-32.022,-34.183,16.511,-0.135,-1.242,2.224
-21.174,-20.885,8.314,-3.253,-0.237,0.598
-17.832,-5.393,8.646,-5.909,1.413,-0.771
-12.343,4.943,15.075,-6.719,1.9,-0.438
-8.103,9.155,17.014,-5.95,3.725,0.764
1.733,8.512,11.305,-4.624,4.299,0.961
5.187,7.287,4.763,-3.942,2.466,0.158
1.264,6.471,0.56,-3.842,1.491,-1.095
-2.607,7.838,-0.935,-3.67,1.796,-2.848
-5.282,12.502,1.43,-3.296,1.679,-4.658
-10.782,17.336,14.296,-1.957,1.035,-5.687
-17.522,17.725,30.398,0.479,2.975,-4.577
-25.083,7.667,46.513,3.258,4.26,-1.913
-30.954,-10.247,58.907,5.74,2.845,1.179
-35.6,-25.22,53.26,6.783,0.681,4.031
-37.405,-35.027,37.131,5.403,-0.042,4.942
-38.492,-36.193,22.166,2.438,-1.308,4.28
-31.209,-26.756,9.058,-0.67,-1.048,2.373
-24.859,-9.768,0.773,-3.446,1.439,0.762
-18.184,0.605,6.619,-4.888,4.244,-0.507
-12.907,4.1,11.361,-5.259,5.539,-0.215
-5.097,4.463,13.039,-4.65,6.696,-0.532
-1.374,3.719,10.136,-4.002,5.647,-1.33
-1.793,1.911,5.691,-3.932,3.75,-2.692
-6.527,2.343,2.649,-4.323,2.693,-4.382
-10.534,8.411,6.007,-4.263,2.691,-6.184
-15.309,15.281,11.618,-2.458,0.833,-6.752
-24.157,17.576,26.179,0.003,2.425,-5.751
-28.46,12.998,41.675,2.709,4.281,-2.778
-36.477,-0.373,56.955,5.555,4.95,0.649
-33.31,-19.037,59.496,8.074,3.21,4.141
-36.576,-35.581,48.971,7.067,3.072,5.866
-29.862,-41.74,32.127,4.397,1.109,5.632
-27.757,-36.342,18.934,1.181,-1.222,4.045
-17.564,-22.096,7.107,-1.666,-0.546,2.807
-16.052,-9.12,3.439,-4.354,1.898,1.473
-7.809,0.673,8.523,-5.46,3.372,0.921
-5.991,5.068,11.858,-5.295,4.829,0.777
-1.232,4.331,8.427,-4.608,5.923,-0.2
-2.64,1.716,4.403,-4.523,4.788,-1.758
-6.522,2.79,1.734,-4.629,3.794,-3.601
-12.029,5.607,5.166,-4.7,3.418,-5.335
-17.899,15.16,12.72,-3.597,2.015,-5.97
-24.74,18.785,28.367,-1.067,3.291,-4.306
-34.936,11.96,44.219,1.694,2.963,-1.509
-43.293,-5.22,58.079,4.488,2.344,1.668
-44.154,-21.715,54.044,6.779,0.826,4.597
-41.816,-38.714,41.166,5.774,0.753,5.61
-38.98,-44.241,26.451,2.575,-2.019,4.332
-30.377,-33.189,15.728,-0.564,-1.491,2.668
-19.521,-16.305,4.989,-3.342,-0.085,1.451
-13.141,-2.179,6.629,-5.522,1.597,0.658
-9.317,5.164,12.037,-5.806,3.029,0.801
-3.297,7.857,12.81,-4.964,5.788,0.629
2.051,3.921,6.772,-4.309,5.056,-0.331
-0.07,3.176,2.969,-4.246,3.433,-1.906
-4.856,3.707,0.246,-4.291,2.798,-3.682
-10.236,6.967,2.493,-4.217,2.458,-5.269
-15.376,13.967,9.667,-3.23,1.068,-5.693
-24.206,16.931,26.427,-0.746,2.876,-3.981
-34.662,9.262,42.342,1.969,3.19,-1.19
-44.473,-8.097,54.732,4.637,2.965,1.877
-42.818,-25.553,52.002,6.768,1.014,4.632
-43.368,-39.841,40.11,5.972,0.498,5.625
-39.687,-44.561,23.761,3.193,-2.381,4.371
-30.811,-33.509,11.5,0.452,-2.119,2.791
-17.956,-16.539,1.903,-2.207,-1.202,1.763
-13.749,-2.568,3.1,-4.263,0.922,0.999
-8.579,3.983,7.568,-4.668,2.102,1.286
-3.749,6.375,8.118,-4.372,4.324,1.468
-0.044,3.126,3.522,-4.217,4.417,0.641
-3.822,2.269,0.552,-4.217,4.257,-0.999
-6.489,3.258,-0.339,-4.307,4.156,-3.153
-11.149,4.457,3.223,-4.666,3.554,-5.107
-17.341,12.86,12.362,-3.858,2.458,-6.093
-24.398,15.943,28.104,-1.273,3.859,-4.504
-33.248,6.432,44.183,1.388,3.245,-1.835
-45.491,-10.468,55.845,4.019,2.983,1.475
-44.675,-24.908,53.909,6.887,1.757,4.922
-40.675,-42.29,41.814,6.975,1.881,6.496
-35.227,-48.538,24.711,4.432,-1.008,5.335
-25.988,-37.552,10.849,1.611,-1.497,3.47
-13.964,-19.574,1.219,-1.13,-1.383,2.084
-11.082,-5.858,1.218,-3.736,0.69,0.749
-7.822,3.011,5.473,-4.886,1.203,0.519
-4.935,6.285,8.008,-5.034,3.453,0.396
-1.733,4.721,5.262,-4.959,4.04,-0.278
-2.857,3.333,1.591,-5.065,3.524,-1.714
-6.663,4.262,-0.685,-5.452,2.716,-3.421
-10.991,5.769,1.905,-5.694,2.96,-5.203
-19.072,7.733,7.983,-5.829,1.949,-6.055
-28.696,4.277,22.622,-4.36,3.413,-4.956
-33.735,-5.765,33.832,-2.468,2.202,-2.134
-41.546,-23.066,45.868,0.589,2.646,0.908
-41.34,-40.908,49.261,3.567,1.336,4.318
-33.905,-57.132,41.477,6.018,1.563,6.749
-22.885,-59.723,24.852,4.884,-0.555,6.895
-18.674,-51.167,15.179,2.941,-0.855,5.353
-9.865,-33.166,5.327,0.22,-1.459,4.175
-7.193,-16.935,0.194,-2.53,0.13,3.046
-5.961,-2.488,3.691,-4.911,0.786,2.09
-6.823,4.246,7.282,-5.29,2.205,1.654
-2.814,6.029,6.361,-4.913,4.045,0.987
-3.988,5.341,4.014,-4.697,4.378,-0.322
-6.811,7.48,2.87,-4.514,3.948,-2.074
-11.554,10.137,3.715,-4.439,4.0,-3.638
-10.382,17.108,8.796,-3.71,3.692,-5.029
-17.317,24.272,18.777,-2.331,2.632,-5.172
-24.201,15.695,34.759,0.174,3.761,-2.845
-35.124,2.031,49.554,2.74,2.602,0.037
-37.78,-17.196,57.883,5.42,2.023,3.08
-45.023,-38.549,51.463,7.021,0.281,5.812
-40.376,-54.148,37.831,6.085,0.856,6.764
-33.086,-49.119,21.03,3.16,-2.04,4.937
-22.784,-34.19,9.029,0.084,-1.553,3.207
-17.586,-16.586,1.059,-2.783,-0.944,1.938
-10.579,-2.178,4.152,-5.045,1.688,0.925
-6.884,5.975,9.657,-5.683,2.951,0.492
-2.651,9.074,11.354,-5.31,4.656,0.402
0.363,7.095,7.378,-4.714,4.946,-0.075
-1.484,7.426,4.326,-4.276,4.347,-1.353
-4.562,8.73,2.423,-4.109,2.886,-2.672
-8.658,10.832,2.88,-3.998,2.376,-3.722
-10.149,17.861,7.406,-3.541,2.576,-4.642
-14.656,21.609,21.502,-1.73,2.455,-4.771
-19.623,16.924,37.242,0.698,3.194,-2.339
-31.604,2.777,52.395,3.256,2.651,0.381
-34.729,-16.03,60.061,5.86,1.239,3.265
-38.646,-37.708,52.034,7.206,0.29,5.303
-35.254,-47.15,34.635,5.222,-0.512,5.733
-32.211,-43.633,20.898,1.994,-2.405,3.934
-20.033,-28.521,8.959,-0.772,-1.265,2.457
-14.389,-11.627,1.631,-3.392,0.361,1.186
-8.724,2.62,6.047,-5.169,1.452,0.662
-5.888,7.535,10.629,-5.052,2.526,0.957
-0.656,8.647,8.354,-4.351,4.018,1.257
0.958,7.336,5.012,-3.979,3.893,0.886
-1.558,7.586,3.721,-3.632,3.234,-0.072
-4.893,9.255,3.013,-3.333,3.182,-1.079
-7.04,10.633,3.025,-3.036,3.704,-2.478
-6.736,15.594,8.774,-2.936,3.276,-4.231
-14.628,23.016,24.054,-0.575,2.974,-4.75
-19.922,16.682,38.768,1.699,2.769,-2.522
-32.997,-1.45,53.666,3.925,2.235,-0.033
-35.365,-19.727,56.349,6.164,0.685,2.726
-40.104,-35.021,46.714,6.302,-0.535,4.837
-37.163,-45.811,29.214,3.367,-1.766,5.476
-31.607,-36.962,16.955,0.288,-0.805,4.144
-16.336,-20.694,4.681,-2.718,0.264,2.86
-12.249,-4.332,3.362,-5.367,1.992,1.816
-7.05,4.462,9.135,-5.555,3.745,1.599
-1.195,7.12,12.656,-5.092,5.826,1.65
1.358,4.67,11.455,-4.494,5.473,1.251
0.893,6.908,9.308,-3.562,4.353,0.46
-2.043,8.46,6.695,-2.76,3.18,-0.711
-5.605,10.91,5.439,-2.286,2.79,-2.164
-7.345,14.264,3.777,-2.025,2.459,-3.98
-16.458,27.321,17.237,-0.474,3.154,-4.902
-26.594,25.547,31.658,1.6,1.955,-2.826
-39.606,11.004,47.592,3.447,2.584,-0.361
-51.657,-7.786,55.111,5.45,1.214,2.565
-53.466,-27.07,52.621,6.458,0.224,5.482
-46.0,-46.475,32.501,4.673,-2.446,6.528
-39.774,-48.111,16.471,1.395,-1.888,4.408
-27.345,-32.504,4.766,-1.991,-2.176,2.506
-14.631,-15.38,0.87,-4.988,0.113,0.943
-11.12,0.701,5.84,-6.414,1.224,-0.189
-9.987,7.128,12.521,-6.303,3.308,-0.327
-5.8,8.946,14.885,-5.502,4.554,-0.233
-3.648,7.939,12.753,-4.532,4.565,-0.409
-3.483,7.748,9.307,-3.754,3.413,-1.004
-5.47,7.442,6.971,-3.343,2.676,-1.608
-6.56,8.106,4.617,-3.269,2.356,-2.7
-1.605,19.022,6.465,-3.305,2.094,-4.167
-14.028,17.659,20.302,-1.447,1.54,-5.555
-20.212,8.654,35.506,0.773,2.284,-3.397
-32.511,-8.178,51.004,3.025,2.793,-1.085
-31.718,-26.129,56.181,5.555,1.933,1.731
-35.072,-50.301,46.352,6.016,1.628,3.879
-29.525,-54.971,30.31,3.082,0.245,6.438
-22.952,-44.765,19.37,-0.122,0.964,4.616
-9.925,-27.111,8.099,-3.306,0.595,3.123
-9.851,-9.666,5.949,-5.861,1.916,1.711
-10.864,4.361,14.617,-6.193,2.699,1.608
-2.851,9.981,17.019,-4.946,5.322,0.96
-1.047,9.49,13.3,-3.89,4.192,1.035
-0.357,9.491,8.843,-2.701,4.062,0.467
-1.047,9.731,5.454,-2.087,3.321,-0.636
-2.281,10.143,2.314,-1.703,2.836,-2.31
-1.186,15.86,6.759,-2.058,2.369,-4.247
-14.393,21.215,21.418,0.089,3.259,-5.172
-26.87,13.459,37.145,2.085,3.799,-3.111
-40.939,-4.226,53.3,4.026,5.008,-0.573
-42.699,-22.323,57.107,5.223,3.179,2.547
-45.271,-39.946,43.504,5.21,1.994,4.723
-40.354,-49.319,28.546,1.718,0.047,6.064
-28.714,-41.1,16.778,-1.44,0.137,3.96
-16.831,-22.608,5.166,-4.361,-0.478,2.439
-14.288,-5.018,5.121,-6.131,1.847,0.856
-13.628,7.091,14.726,-5.987,3.389,0.712
-5.675,10.563,16.335,-4.887,5.045,0.377
-3.951,9.734,14.16,-4.09,4.937,0.676
-0.835,8.448,10.675,-3.379,4.498,0.2
-1.85,8.162,6.883,-2.898,3.899,-0.631
-2.143,9.282,3.792,-2.493,3.438,-2.372
-0.821,16.773,5.753,-2.487,2.655,-4.199
-13.599,20.256,19.696,-0.127,2.682,-5.592
-23.457,15.194,34.794,2.084,3.463,-3.595
-37.664,-2.11,50.944,4.174,4.718,-1.18
-36.06,-20.991,56.796,5.759,3.119,2.021
-40.257,-38.064,49.916,6.054,2.152,4.166
-34.029,-45.064,31.823,3.091,0.246,5.513
-26.788,-39.242,18.669,-0.062,-0.1,3.606
-12.806,-21.215,6.007,-3.367,-1.525,2.029
-14.67,-4.089,3.831,-5.91,0.912,0.558
-12.03,5.427,9.249,-6.727,2.402,0.332
-5.917,9.13,14.567,-6.421,4.664,0.524
-2.617,8.382,13.81,-5.761,4.245,0.733
-1.824,7.452,11.26,-4.759,4.194,0.31
-2.495,7.181,7.881,-4.068,3.249,-0.682
-3.477,9.214,4.899,-3.569,2.737,-2.489
-3.911,20.312,8.718,-3.177,2.009,-4.324
-18.778,14.469,22.629,-0.685,3.258,-3.885
-32.671,1.509,37.841,1.619,4.43,-1.886
-43.235,-15.347,53.829,3.95,5.719,0.578
-43.624,-32.485,55.682,5.314,4.504,3.959
-43.726,-52.662,46.534,5.469,3.385,5.852
-34.246,-50.449,29.145,2.526,0.359,4.96
-22.833,-36.199,16.474,-0.858,-0.837,2.768
-13.045,-17.421,4.643,-4.351,-2.561,1.513
-11.596,-1.802,6.866,-6.299,-0.358,0.233
-9.978,7.144,11.971,-7.058,0.99,0.309
-4.684,10.908,15.313,-6.801,3.077,0.928
-1.289,10.046,13.516,-5.951,3.597,1.347
0.581,8.343,10.091,-4.904,3.996,0.47
-1.926,8.411,6.078,-4.384,2.821,-0.713
-4.439,10.172,3.676,-3.7,2.981,-2.424
-4.435,16.886,5.994,-2.953,2.639,-4.383
-16.272,16.763,20.463,-0.419,3.347,-5.679
-25.795,12.702,35.717,2.027,4.747,-3.548
-35.728,-4.907,51.485,4.5,6.236,-1.085
-34.53,-24.011,56.311,6.595,5.748,2.149
-33.718,-43.12,50.13,6.727,5.189,3.964
-25.499,-49.373,31.512,4.283,2.121,4.833
-20.526,-45.907,16.667,1.37,0.09,2.381
-10.718,-28.565,3.788,-1.873,-1.633,0.476
-12.104,-11.328,1.211,-4.978,-1.628,-0.85
-13.34,0.664,6.241,-6.247,-0.926,-0.613
-9.471,6.555,11.286,-6.717,1.316,-0.074
-4.028,7.415,11.587,-6.564,1.759,0.676
-2.34,7.182,9.235,-6.021,1.972,0.554
-2.667,6.802,7.003,-5.633,1.815,-0.561
-4.704,9.32,5.923,-5.254,1.973,-2.229
-6.006,21.607,10.736,-4.046,1.623,-4.06
-17.041,21.46,25.281,-1.287,3.211,-4.115
-29.321,10.379,40.511,1.414,4.238,-2.087
-42.015,-6.479,55.296,4.22,5.615,0.353
-41.007,-23.257,55.957,6.338,4.5,3.462
-41.804,-44.125,46.121,6.111,3.903,5.762
-32.343,-48.193,28.642,3.42,0.849,5.453
-22.983,-37.258,13.07,0.224,-1.06,3.193
-11.582,-20.624,-0.314,-3.269,-2.142,1.18
-12.75,-5.401,0.578,-6.139,-0.686,-0.345
-11.859,3.383,6.914,-7.419,0.836,-0.572
-10.019,7.395,11.47,-7.597,3.129,-0.002
-5.591,8.114,13.265,-6.963,4.511,0.732
-2.15,9.314,12.588,-5.719,4.353,0.984
-0.561,9.275,8.462,-4.27,3.132,0.379
-1.133,10.442,4.653,-2.939,2.379,-0.903
-1.719,16.489,2.163,-2.006,2.311,-2.9
-3.268,28.91,12.903,-0.204,3.205,-4.735
-18.929,17.7,27.562,2.044,4.182,-2.974
-33.489,-0.175,43.223,4.047,5.788,-0.844
-38.188,-18.584,50.921,4.829,5.936,1.858
-38.6,-37.279,46.726,4.054,3.273,4.636
-42.782,-53.603,31.429,1.322,0.696,6.142
-30.138,-37.977,20.374,-2.135,0.433,4.487
-15.643,-19.958,9.519,-4.784,0.08,3.174
-9.314,-2.7,3.854,-5.902,0.341,1.854
-8.161,9.665,9.085,-5.321,3.265,0.923
-2.661,12.703,13.119,-3.967,5.314,0.907
0.044,7.443,9.583,-2.571,5.072,0.362
0.382,6.317,5.672,-2.037,4.402,-0.836
-0.338,6.869,3.748,-1.973,3.724,-2.567
-2.93,9.417,2.56,-2.086,2.983,-4.414
-6.087,17.548,5.444,-1.649,1.836,-6.036
-21.435,17.634,20.034,0.412,2.795,-5.993
-36.267,11.978,35.676,2.528,4.072,-3.482
-48.949,-5.833,51.634,4.534,5.616,-0.431
-46.908,-25.234,55.303,5.786,4.392,3.061
-48.489,-40.682,45.407,4.709,3.528,5.505
-36.845,-42.789,29.017,1.352,0.644,6.125
-23.836,-35.02,15.999,-1.644,-0.37,4.709
-11.022,-17.1,3.18,-4.024,-0.812,3.178
-10.368,0.255,1.21,-5.427,0.979,1.671
-5.624,6.919,7.956,-5.028,2.946,1.102
-1.32,8.398,10.28,-4.043,5.18,0.906
1.035,6.842,9.495,-3.322,5.355,0.474
0.198,6.958,7.411,-2.837,4.343,-0.176
-2.815,7.924,5.523,-2.368,3.224,-1.259
-6.178,10.902,4.203,-2.116,2.197,-2.621
-8.673,15.54,4.336,-2.095,2.124,-4.333
-10.598,27.667,13.203,-1.377,1.829,-5.645
-24.174,18.852,28.106,0.665,1.663,-3.464
-37.348,0.531,43.86,2.588,3.525,-0.875
-42.423,-18.612,54.869,4.519,5.165,2.105
-40.317,-35.672,53.157,4.9,3.077,5.34
-39.763,-54.27,37.374,3.973,1.218,6.947
-27.331,-48.756,20.724,0.892,-0.051,4.728
-15.906,-26.772,9.064,-2.551,-2.426,3.32
-8.503,-9.531,-0.077,-5.183,-2.812,2.02
-7.893,3.841,1.763,-5.924,-0.924,0.939
-6.662,10.314,8.172,-5.829,1.459,0.976
-3.823,13.11,11.133,-4.958,3.987,1.343
0.19,8.306,7.796,-3.681,5.198,0.725
-0.847,8.264,6.087,-3.05,4.232,-0.255
-3.593,8.41,3.862,-2.603,4.15,-1.639
-5.412,10.657,2.418,-2.523,4.059,-3.415
-8.197,18.606,8.875,-2.34,3.689,-4.999
-21.981,14.698,23.872,-0.174,4.355,-3.774
-34.404,6.752,39.599,2.024,4.54,-1.493
-38.035,-10.79,49.772,4.287,5.422,1.182
-36.889,-25.492,50.703,5.239,3.018,4.443
-38.093,-39.153,39.334,4.961,1.338,6.641
-28.087,-37.391,21.828,2.117,-0.609,5.979
-16.899,-29.315,7.297,-0.943,-0.698,4.678
-12.305,-11.984,-0.55,-3.798,-1.431,3.314
-12.279,0.047,1.089,-4.917,1.124,1.982
-8.46,5.275,6.17,-4.809,3.035,1.749
-3.97,7.388,9.099,-4.155,4.51,1.776
-0.991,7.06,8.132,-3.214,5.034,1.383
-0.548,6.456,5.461,-2.425,5.053,0.58
-0.766,6.779,2.121,-1.998,4.488,-0.678
-2.695,8.397,-0.43,-1.924,3.972,-2.539
-6.799,12.717,0.082,-2.259,4.088,-4.596
-19.373,18.189,14.809,-0.628,3.662,-5.281
-28.974,19.411,31.185,1.438,3.216,-3.113
-40.315,4.807,44.019,3.487,3.365,-0.491
-44.305,-12.119,47.547,4.911,2.602,2.705
-43.374,-25.341,44.128,5.189,0.503,5.387
-35.698,-33.346,26.769,3.182,-0.86,6.33
-28.416,-34.33,11.072,0.335,-1.198,4.966
-16.922,-19.969,1.017,-2.536,-0.996,3.869
-11.223,-5.648,0.778,-4.358,0.659,2.719
-7.641,2.162,4.241,-4.546,2.897,2.114
-1.583,5.078,7.217,-4.352,4.859,1.785
0.849,6.769,7.833,-3.672,5.739,0.959
0.617,8.068,6.295,-2.782,5.507,-0.509
-1.468,10.743,2.56,-2.191,4.451,-2.217
-4.579,14.106,1.058,-1.919,4.1,-4.211
-7.413,17.62,2.974,-1.841,3.336,-5.939
-18.581,25.495,18.055,-1.052,2.578,-5.582
-27.203,19.703,33.336,0.929,2.242,-3.018
-40.687,0.966,49.854,2.86,2.834,-0.025
-43.187,-18.452,54.645,5.023,1.987,3.385
-44.395,-33.764,49.958,5.461,0.74,6.548
-37.03,-47.439,30.043,4.413,-0.566,7.427
-29.143,-43.917,14.32,1.647,-0.772,6.068
-14.369,-26.493,0.047,-1.29,-1.278,4.559
-10.987,-9.636,-2.677,-3.947,0.076,2.996
-7.986,1.51,1.328,-4.649,2.504,1.647
-3.613,6.239,7.522,-4.681,4.706,0.722
-2.41,7.907,8.677,-4.282,5.474,-0.103
-3.138,8.68,6.887,-3.646,5.327,-1.109
-4.423,11.052,4.63,-3.263,4.628,-2.449
-8.147,14.94,4.249,-3.272,4.072,-3.959
-9.327,22.859,9.979,-2.425,4.17,-4.998
-20.777,27.568,23.841,-0.058,4.38,-3.901
-32.058,21.342,39.686,2.243,3.808,-1.386
-43.418,4.109,52.916,4.516,4.646,1.517
-43.126,-12.663,54.51,6.244,2.665,4.622
-46.788,-29.609,44.032,6.256,0.666,6.436
-37.896,-39.088,25.97,4.076,-1.257,5.974
-29.428,-35.161,9.797,1.511,-1.554,4.6
-17.335,-20.517,-2.337,-1.213,-2.279,3.376
-14.739,-7.994,-3.482,-3.284,-0.044,2.269
-9.209,-0.132,1.669,-4.33,2.219,1.811
-5.331,4.03,6.287,-4.642,3.83,1.576
-0.725,6.049,8.078,-4.439,5.101,0.734
-0.084,8.338,6.363,-3.961,5.104,-0.405
-0.634,10.394,3.656,-3.259,4.359,-1.782
-2.985,13.169,0.704,-2.682,3.425,-3.116
-5.019,17.241,0.336,-2.186,3.604,-4.759
-6.158,24.357,7.377,-0.934,2.852,-5.524
-17.434,23.033,23.709,1.312,3.921,-3.596
-31.548,12.796,40.27,3.448,3.393,-1.028
-36.71,-6.398,49.281,5.517,3.674,1.868
-38.309,-21.795,46.866,5.746,1.474,4.708
-41.521,-34.202,34.891,4.611,0.609,5.995
-33.804,-35.925,18.411,1.87,-1.668,4.598
-21.372,-26.489,5.18,-0.909,-0.935,3.159
-16.233,-9.937,-0.735,-3.671,-0.468,1.865
-12.938,0.625,3.499,-4.482,2.385,0.815
-8.698,4.934,9.275,-4.881,4.27,0.56
-4.459,5.794,11.637,-4.699,6.166,0.315
-1.586,5.055,9.979,-4.512,6.428,-0.63
-2.273,5.451,8.408,-4.464,5.629,-2.089
-5.233,7.009,6.195,-4.451,4.619,-3.42
-9.691,9.455,5.233,-4.474,4.052,-4.448
-11.498,16.368,9.99,-3.877,3.788,-5.187
-20.923,22.589,20.989,-1.703,2.552,-3.983
-26.583,18.985,35.732,1.012,2.16,-1.231
-39.355,4.587,50.327,3.577,1.538,1.739
-39.41,-12.012,52.321,5.632,0.911,4.709
-40.051,-26.512,43.081,5.588,-1.046,6.49
-33.978,-35.583,29.197,3.742,-1.525,5.872
-30.673,-32.14,14.167,1.219,-1.787,4.167
-17.611,-18.244,1.245,-1.454,-0.92,2.746
-14.692,-4.48,0.609,-3.58,0.645,1.188
-12.641,2.568,5.623,-4.186,3.139,0.34
-9.699,4.538,9.094,-4.563,5.331,-0.154
-5.568,4.025,10.284,-4.717,6.746,-1.223
-4.476,2.848,9.957,-4.758,6.534,-3.089
-5.504,2.677,10.589,-4.818,5.366,-4.827
-7.119,2.067,10.843,-5.196,3.424,-5.89
-8.777,5.394,13.025,-5.291,1.086,-5.804
-14.133,12.028,13.625,-4.207,-0.88,-4.66
-17.715,16.417,17.919,-1.855,-0.918,-2.301
-20.675,16.204,25.8,0.945,-0.492,0.786
-24.947,12.435,32.386,3.935,-1.189,3.596
-28.512,-1.264,30.495,6.67,0.308,4.998
-21.784,-17.322,25.574,7.118,1.571,4.971
-18.553,-27.121,18.282,4.531,-0.401,3.425
-18.455,-28.534,8.951,1.31,-2.064,1.049
-16.773,-23.151,3.558,-1.85,-0.358,-1.154
-13.167,-11.2,5.724,-5.027,-0.478,-2.148
-15.257,-0.909,11.081,-7.067,-0.496,-1.731
-13.576,4.617,14.472,-7.12,1.946,-0.512
-7.807,6.032,15.509,-6.844,4.186,0.458
-2.705,5.159,14.549,-6.592,4.899,0.635
-1.507,4.007,12.961,-6.276,5.427,-0.217
-2.616,3.947,12.159,-5.95,4.805,-2.165
-8.45,6.802,13.289,-5.629,3.245,-4.104
-13.272,14.247,17.173,-4.316,2.11,-5.352
-17.201,22.498,26.912,-1.407,2.51,-5.004
-24.677,19.425,40.345,1.454,2.333,-2.353
-37.764,10.433,52.703,4.312,2.413,0.834
-39.215,-8.273,53.92,6.993,4.528,4.029
-34.049,-25.728,44.686,6.839,4.245,5.754
-29.861,-37.838,29.372,4.14,0.917,5.443
-24.988,-34.891,14.0,0.976,-1.644,3.289
-12.938,-24.937,1.525,-2.159,-1.373,1.927
-6.721,-8.918,-0.95,-5.084,-1.563,0.636
-6.826,1.5,4.605,-6.015,0.001,0.14
-5.792,5.745,8.923,-5.868,2.397,0.239
-1.806,6.282,9.581,-5.296,4.227,0.344
1.35,4.735,7.861,-4.833,4.066,-0.321
0.906,6.262,6.461,-4.652,2.697,-1.345
-3.407,9.811,5.535,-4.381,1.222,-2.274
-8.463,14.328,8.271,-4.094,1.07,-2.938
-9.689,23.61,17.167,-2.457,2.119,-3.282
-11.821,28.218,32.193,0.214,3.133,-2.253
-18.46,21.629,46.894,2.958,4.722,0.062
-26.492,8.128,52.685,5.404,4.482,2.633
-28.276,-7.03,48.792,6.575,4.278,4.758
-27.697,-23.04,35.402,5.432,2.594,5.804
-27.968,-30.81,17.32,2.802,0.102,5.122
-22.831,-26.438,1.369,-0.083,-2.216,3.259
-13.615,-15.83,-4.459,-3.096,-1.855,1.849
-8.908,-5.879,-2.031,-5.002,-0.675,1.116
-7.982,-0.182,3.971,-5.901,1.069,0.733
-4.809,3.269,8.821,-6.053,3.039,0.48
-2.42,4.342,11.559,-5.91,4.008,0.3
-1.144,5.063,11.298,-5.569,4.611,-0.707
-2.379,7.697,9.379,-5.14,3.236,-2.188
-5.558,11.888,8.376,-4.434,2.064,-3.445
-9.21,17.048,9.804,-3.494,1.775,-4.337
-10.919,23.875,15.275,-1.271,2.008,-4.571
-11.622,24.561,28.255,1.401,2.872,-2.738
-16.952,19.332,40.948,3.971,2.121,0.038
-22.6,0.568,47.169,6.262,3.848,1.421
-21.423,-17.303,41.879,6.864,3.609,3.136
-20.848,-29.866,31.6,4.901,1.232,4.1
-21.855,-32.719,17.318,2.158,-2.153,3.197
-17.438,-27.57,5.816,-0.737,-1.83,2.254
-8.899,-12.263,-0.116,-3.556,-2.63,3.096
-5.504,-0.298,3.378,-5.082,-1.935,3.374
-2.464,5.805,7.126,-5.059,0.915,3.565
1.266,7.917,8.164,-4.528,3.706,3.63
4.744,7.444,6.067,-3.433,4.386,2.737
3.31,9.083,3.558,-2.282,3.495,1.321
1.325,10.85,1.528,-1.072,2.67,-0.375
-1.089,13.182,0.01,-0.408,1.192,-2.427
-1.983,21.359,2.125,0.011,0.606,-4.11
-12.108,26.43,18.036,1.539,1.405,-4.171
-22.063,16.81,31.791,3.208,1.841,-1.992
-36.313,-0.998,42.021,4.763,3.385,0.536
-34.11,-17.769,44.988,5.263,3.217,3.585
-37.846,-34.518,39.731,4.714,1.22,5.747
-31.848,-42.776,21.577,2.293,-0.778,6.119
-22.917,-33.816,9.527,-0.806,-1.225,4.594
-9.081,-16.049,1.715,-3.875,-2.113,3.315
-10.825,-1.75,1.554,-5.32,0.039,2.169
-6.529,5.74,6.12,-5.43,3.32,1.507
-2.555,8.013,10.591,-5.123,5.412,1.02
-0.476,7.258,11.335,-4.524,6.26,0.249
-0.413,7.227,10.875,-4.014,5.647,-0.972
-2.419,8.479,10.322,-3.81,3.59,-2.236
-5.504,12.247,11.699,-3.996,1.957,-3.29
-3.932,22.625,17.516,-2.669,0.717,-4.141
-7.163,28.758,30.38,-0.169,1.109,-4.403
-13.823,24.352,44.469,2.391,2.848,-1.903
-22.722,8.342,52.841,4.927,4.914,0.498
-18.768,-8.877,50.233,5.921,5.564,1.844
-22.819,-26.891,38.691,4.455,3.649,3.592
-22.039,-36.223,21.711,1.909,1.131,4.497
-17.317,-32.828,6.786,-0.888,-1.941,2.655
-9.065,-16.74,-1.604,-3.898,-3.633,1.751
-10.776,-3.111,-0.196,-5.135,-3.074,2.169
-8.338,3.498,5.969,-5.46,0.047,2.162
-5.127,6.617,11.419,-5.467,2.803,2.126
-1.633,6.454,11.807,-5.111,4.627,1.749
0.456,5.905,10.634,-4.633,4.379,0.344
-2.593,7.303,10.021,-4.346,2.988,-1.37
-5.72,10.708,10.476,-4.215,2.002,-3.043
-5.651,23.384,13.877,-3.241,0.672,-4.32
-13.776,29.892,28.415,-0.799,1.919,-4.084
-27.115,18.091,43.144,1.732,3.986,-1.643
-39.417,0.253,49.69,4.325,5.556,0.966
-35.038,-15.475,46.848,4.612,5.212,3.177
-37.77,-34.931,35.836,3.358,3.275,4.984
-34.033,-43.464,17.5,0.351,0.486,5.227
-22.181,-32.7,3.362,-2.868,-2.175,3.486
-9.535,-14.777,-1.392,-5.814,-2.677,2.487
-10.445,-1.419,3.324,-5.968,-0.975,1.903
-7.012,5.737,11.052,-5.59,1.88,1.769
-2.644,8.012,15.044,-4.854,4.277,1.784
0.853,8.218,13.977,-3.777,6.465,1.202
3.896,7.844,10.122,-3.032,5.262,-0.517
-0.028,8.576,5.253,-2.838,2.773,-2.232
-4.905,12.225,4.731,-2.801,2.312,-4.013
-5.842,22.404,12.141,-1.592,1.083,-5.389
-15.015,27.424,27.346,0.549,1.556,-4.701
-28.842,18.579,42.847,2.751,3.508,-1.983
-37.126,0.639,50.732,4.783,5.659,0.605
-33.595,-15.509,46.253,5.51,4.293,2.734
-36.089,-32.134,33.425,4.308,2.675,4.535
-30.703,-40.081,15.064,1.574,-0.143,4.532
-19.293,-32.077,0.207,-1.3,-2.852,2.921
-9.667,-12.995,-4.956,-3.708,-3.927,2.097
-9.518,-0.444,-0.344,-4.538,-1.755,1.944
-5.803,5.605,6.689,-4.696,1.484,1.814
-1.229,9.155,11.668,-4.281,3.776,1.547
1.796,9.934,12.405,-3.594,5.339,1.312
3.921,9.201,9.208,-2.831,5.044,0.368
3.305,10.445,6.188,-2.288,3.274,-0.892
2.215,12.806,3.37,-2.004,1.023,-2.332
1.874,19.192,6.613,-1.734,-0.588,-3.732
-0.797,24.879,14.016,-0.186,-1.262,-5.201
-3.736,22.829,30.278,1.819,0.447,-5.084
-13.667,15.278,41.963,3.797,2.509,-2.727
-13.923,-0.175,50.293,4.192,4.76,-2.001
-14.985,-17.09,43.18,4.305,3.404,0.312
-12.816,-29.019,33.085,3.271,2.972,2.278
-11.712,-32.617,14.367,1.442,0.564,2.798
-3.215,-28.429,1.383,-0.925,-1.94,0.991
-5.452,-14.045,-5.372,-2.276,-4.794,1.443
-7.92,-2.557,-1.046,-3.465,-2.522,1.175
-7.7,3.188,3.61,-4.876,-0.632,1.156
-4.775,8.492,9.969,-6.051,0.785,1.098
-1.462,11.759,13.661,-6.314,2.279,1.317
3.48,13.406,13.11,-5.66,4.004,1.315
5.631,14.025,10.086,-4.478,3.283,0.619
3.469,15.199,5.157,-2.966,1.078,-0.226
0.492,14.493,1.791,-1.604,-0.062,-1.519
-1.431,16.258,-0.118,-0.827,-1.067,-3.404
-2.957,24.926,4.637,0.751,-1.328,-5.154
-9.07,27.711,16.11,2.695,0.614,-5.421
-12.618,24.807,27.41,4.266,3.181,-4.023
-18.535,9.075,34.401,5.199,5.311,-4.206
-14.499,-3.266,35.999,4.507,3.833,-2.087
-16.49,-19.916,29.237,3.082,2.567,1.158
-7.379,-30.193,15.726,1.164,1.234,2.29
0.192,-30.902,4.81,-1.269,-1.417,1.371
7.056,-15.478,-0.199,-3.674,-4.91,1.87
-1.732,-3.259,1.378,-4.425,-3.582,2.164
0.399,2.497,5.11,-5.186,-1.29,1.023
-0.993,8.499,9.928,-6.344,-1.379,0.653
-2.035,12.039,12.554,-6.772,0.33,0.47
-1.702,13.944,10.644,-6.027,1.641,0.944
0.971,12.71,7.636,-4.866,1.481,-0.097
-1.076,14.817,4.957,-3.858,0.151,-1.238
-1.636,20.351,8.018,-2.682,0.415,-2.689
-0.353,24.171,15.734,-0.109,-1.189,-3.416
-1.233,22.252,31.254,2.261,0.64,-3.657
-7.415,14.339,41.895,4.395,2.964,-1.557
-11.924,-0.165,45.384,5.628,4.612,-0.012
-14.294,-15.866,38.669,5.017,2.675,1.674
-20.11,-25.242,26.543,2.678,1.955,2.828
-21.341,-26.226,10.016,-0.053,0.362,3.121
-13.744,-19.418,0.584,-3.083,-1.436,1.192
-9.544,-5.582,-0.272,-5.207,-2.5,0.686
-7.544,3.641,3.098,-5.41,0.133,0.4
-3.011,8.051,7.685,-5.423,2.529,0.28
0.259,9.449,9.692,-5.216,3.744,0.298
1.054,10.284,8.155,-4.587,4.113,0.094
1.25,9.511,5.094,-3.932,3.402,-0.829
-1.495,10.11,2.744,-3.486,2.052,-1.865
-4.525,11.58,1.825,-2.987,1.337,-3.058
-5.614,16.86,5.226,-2.293,0.962,-4.193
-5.743,18.796,14.606,-0.653,0.052,-5.007
-9.528,16.474,30.51,1.625,1.875,-4.812
-14.568,7.58,46.316,3.894,2.729,-2.266
-20.632,-7.504,52.628,5.997,3.54,0.432
-19.546,-24.238,47.38,6.404,3.235,2.51
-21.172,-33.26,35.074,4.847,2.805,3.746
-19.059,-34.041,18.913,2.125,0.403,3.754
-14.961,-25.593,5.268,-0.847,-0.763,1.768
-9.446,-11.57,0.824,-3.704,-1.036,0.449
-10.387,-1.187,3.641,-5.166,-0.284,0.155
-7.769,4.228,8.957,-5.666,2.179,0.418
-3.338,8.434,11.329,-5.69,3.9,0.837
-0.567,9.483,9.378,-5.189,4.53,1.156
0.356,10.147,5.057,-4.248,4.341,0.476
-0.417,12.405,2.56,-3.173,3.572,-0.744
-1.68,13.775,0.13,-2.274,2.178,-2.358
-4.118,15.406,-0.054,-1.745,1.594,-3.965
-7.988,23.709,11.909,-0.784,2.543,-4.373
-18.775,11.446,29.178,1.17,1.461,-2.266
-33.391,-3.45,45.357,2.979,0.891,0.221
-35.983,-21.554,50.733,4.897,1.643,3.195
-37.071,-35.681,48.819,5.485,0.079,5.999
-36.115,-49.946,34.494,4.811,-2.058,6.654
-27.95,-40.813,18.006,2.221,-1.949,4.907
-15.305,-27.214,3.857,-0.621,-1.458,3.365
-12.915,-8.999,1.131,-3.46,-1.503,2.216
-10.233,1.983,3.143,-4.599,0.729,1.589
-5.786,6.738,6.477,-5.059,2.549,1.867
-1.407,8.423,8.197,-4.824,4.388,2.266
2.405,8.607,6.721,-4.03,5.481,1.881
1.296,7.603,3.663,-3.155,5.239,0.859
-1.476,7.234,2.031,-2.381,4.381,-0.622
-5.179,8.456,1.118,-1.889,3.804,-2.392
-7.565,11.889,3.42,-1.851,3.403,-4.536
-8.83,20.283,13.575,-0.861,1.288,-5.503
-15.522,20.066,29.635,1.103,2.474,-4.354
-22.458,12.402,42.958,3.098,2.532,-1.697
-25.463,-3.873,51.955,5.25,2.889,0.411
-26.234,-18.51,49.503,6.142,1.121,3.059
-28.896,-32.151,37.112,5.084,0.889,4.652
-24.075,-33.363,20.619,2.648,-1.196,4.288
-16.464,-24.425,9.14,-0.147,-1.183,2.984
-11.515,-9.153,1.966,-2.94,-1.073,2.674
-8.379,1.634,3.415,-4.142,1.038,2.22
-4.384,7.082,7.677,-4.568,3.28,1.988
0.916,8.723,9.392,-4.447,4.802,1.392
1.46,8.724,7.961,-3.889,4.573,0.723
0.376,9.225,6.487,-3.031,4.316,-0.194
-0.878,9.999,4.512,-2.183,3.469,-1.107
-2.156,9.627,2.242,-1.593,2.075,-2.146
-4.115,12.874,2.511,-1.476,1.128,-3.348
-1.607,20.344,6.522,-0.373,0.342,-4.648
-8.211,21.781,21.711,1.561,0.378,-5.012
-15.494,15.885,37.154,3.34,1.653,-2.8
-22.498,1.26,48.247,5.292,2.873,-0.228
-24.199,-14.09,48.14,6.398,1.499,2.743
-29.102,-29.214,41.478,5.758,1.589,4.85
-24.172,-33.628,24.367,3.239,0.771,5.905
-17.636,-26.899,10.908,0.397,-0.011,4.627
-9.471,-11.982,2.401,-2.312,-0.053,3.131
-6.429,0.64,3.204,-3.732,2.034,1.803
-2.478,6.72,6.026,-4.36,3.911,0.814
-0.21,11.018,9.555,-4.244,5.302,-0.021
0.577,10.38,8.744,-3.641,5.236,-0.883
-1.469,10.691,7.386,-3.06,5.066,-1.889
-3.662,10.48,5.433,-2.82,4.292,-2.986
-5.839,13.382,6.127,-2.726,3.833,-4.035
-2.644,20.337,8.138,-1.74,2.493,-4.84
-10.532,25.728,22.408,0.498,1.541,-5.047
-18.625,19.441,37.049,2.626,2.447,-2.545
-26.931,5.195,49.079,4.896,3.408,0.184
-26.465,-9.465,50.797,5.795,1.559,2.996
-31.589,-25.06,44.925,5.42,0.892,4.789
-26.354,-34.133,27.186,3.098,0.537,5.634
-19.472,-29.601,11.999,0.306,-1.224,4.189
-10.643,-14.649,2.62,-2.559,-1.623,2.869
-9.906,-1.905,2.076,-3.859,0.197,2.034
-6.408,5.433,6.292,-4.49,2.404,1.793
-3.005,8.29,9.283,-4.435,4.136,1.396
-1.05,9.839,9.205,-3.848,5.522,0.372
-0.925,8.68,7.297,-3.23,5.464,-1.176
-2.321,8.047,4.666,-3.067,4.68,-2.994
-5.258,9.299,4.37,-3.26,3.904,-4.73
-7.471,15.679,9.669,-2.855,2.659,-5.685
-15.432,15.263,23.632,-0.65,1.14,-5.314
-23.484,10.391,37.503,1.597,2.254,-2.54
-33.317,-2.734,49.752,4.145,2.583,0.503
-28.915,-21.638,54.146,6.054,2.39,3.255
-25.839,-36.064,46.959,6.16,1.238,5.129
-21.366,-39.377,30.871,3.929,0.416,5.486
-17.299,-34.822,16.574,1.434,-1.625,4.096
-7.341,-21.245,5.822,-1.151,-2.195,3.083
-10.143,-4.223,0.727,-2.915,-2.187,2.7
-10.953,3.423,3.393,-3.517,-0.063,2.631
-6.87,6.511,7.085,-3.64,2.423,2.936
-2.343,6.992,8.732,-3.35,4.008,2.457
-1.305,7.323,8.079,-2.842,5.191,1.116
-1.505,8.108,6.388,-2.498,5.226,-0.777
-3.97,10.01,4.876,-2.475,4.912,-2.709
-3.77,13.033,5.626,-2.397,4.423,-4.607
-6.545,15.217,13.516,-1.619,1.95,-5.76
-12.251,14.19,24.891,0.457,2.712,-5.478
-17.132,6.584,36.635,2.586,3.987,-2.792
-17.698,-6.88,46.117,4.594,4.457,0.189
-18.519,-19.587,46.715,5.714,2.62,3.172
-18.312,-29.388,36.38,5.917,3.175,5.183
-15.148,-32.293,22.703,4.124,1.129,5.946
-11.879,-26.858,10.173,1.94,-0.183,4.589
-9.723,-15.7,0.857,-0.363,-1.107,3.213
-10.527,-5.447,-1.013,-1.91,0.866,2.07
-8.642,1.654,1.817,-3.362,2.934,1.404
-6.188,5.557,5.824,-4.11,4.647,0.827
-3.74,7.417,8.443,-4.364,5.422,0.195
-3.658,8.961,8.981,-4.118,5.834,-0.823
-3.657,9.166,8.329,-3.723,5.108,-2.235
-3.987,10.454,7.027,-3.259,4.622,-3.957
-2.386,12.314,7.681,-2.466,3.53,-5.562
-16.21,5.422,18.283,-1.484,1.572,-7.066
-22.264,-1.03,29.069,0.899,2.624,-5.532
-28.789,-13.087,43.187,3.208,3.481,-2.626
-31.453,-31.3,55.061,5.421,4.231,0.866
-31.138,-47.467,52.882,6.847,3.335,4.079
-18.227,-48.833,37.546,6.653,4.246,6.202
-13.934,-46.295,23.61,4.034,1.811,5.447
-9.14,-35.552,9.669,1.138,0.539,3.932
-6.845,-18.702,-1.024,-1.886,-0.748,2.685
-9.147,-6.19,-0.382,-4.52,1.15,1.603
-7.556,2.754,5.778,-5.734,2.597,1.235
-4.826,7.721,11.058,-5.756,4.15,1.322
-1.471,9.595,12.076,-5.013,5.402,1.339
1.684,11.82,10.428,-3.795,5.868,0.839
3.221,13.815,7.064,-2.372,4.685,0.132
4.075,14.085,3.301,-0.862,2.7,-0.642
3.082,14.946,0.176,-0.027,1.064,-2.267
4.175,17.752,4.454,0.283,-0.423,-3.891
-1.342,20.495,16.664,1.345,-1.02,-4.384
-10.225,13.152,32.645,2.877,-0.601,-3.072
-22.154,0.526,44.475,4.231,0.995,-0.56
-24.33,-16.901,46.602,5.427,1.515,2.277
-27.42,-29.485,38.425,5.142,0.903,4.599
-26.517,-37.515,24.12,3.366,-0.293,5.56
-22.264,-31.737,9.927,0.619,-0.831,4.964
-12.66,-19.991,1.127,-2.074,-1.069,3.452
-10.395,-4.507,1.658,-4.067,0.202,2.369
-8.328,3.8,5.771,-4.38,2.48,1.625
-4.823,7.75,10.042,-4.16,5.105,1.148
-0.42,9.109,11.838,-3.599,6.722,0.406
0.644,9.899,10.184,-2.861,6.686,-0.338
0.642,10.627,7.229,-2.0,6.006,-1.345
-0.052,11.473,3.742,-1.277,4.264,-2.379
-2.298,12.646,0.683,-1.044,2.344,-3.48
-2.975,16.768,1.951,-0.744,1.123,-4.429
-6.778,21.807,8.406,0.275,0.274,-4.488
-14.492,18.094,21.846,2.018,0.676,-2.817
-23.79,11.217,32.842,3.734,1.195,-0.239
-25.087,-5.406,38.572,5.357,2.04,2.44
-27.006,-18.078,35.296,5.506,0.429,4.728
-26.461,-27.891,26.681,4.279,-0.424,5.597
-22.965,-26.606,12.196,1.805,-1.023,4.855
-14.417,-20.789,3.507,-0.814,-0.6,3.346
-12.375,-5.761,-0.431,-3.071,-0.78,2.083
-10.74,1.728,1.567,-3.846,2.16,1.136
-7.762,5.083,4.844,-4.078,4.241,0.318
-3.94,5.986,7.142,-3.903,4.902,-0.836
-4.649,6.329,6.15,-3.606,4.804,-2.212
-5.86,5.962,5.041,-3.363,4.692,-3.921
-7.926,6.309,3.577,-3.411,3.406,-5.453
-9.866,7.72,4.986,-3.522,2.332,-6.337
-14.844,6.229,13.776,-2.536,0.18,-6.485
-19.667,6.772,27.318,-0.215,1.372,-5.204
-24.608,-1.51,40.311,2.244,2.076,-2.053
-26.436,-18.616,50.221,4.806,3.067,1.18
-23.636,-30.328,49.095,6.239,1.703,4.073
-21.165,-34.434,37.995,5.723,2.521,5.605
-19.262,-37.491,22.696,3.05,0.631,5.807
-14.016,-29.555,10.827,0.288,0.208,4.35
-10.333,-11.869,3.072,-2.417,-0.963,2.984
-11.553,-1.501,3.162,-3.745,1.491,1.813
-7.455,4.572,6.797,-4.254,3.237,1.491
-2.843,7.319,10.369,-3.938,4.663,1.042
-0.737,7.753,9.822,-3.452,4.695,0.501
-0.38,7.3,7.365,-3.011,4.684,-0.316
-0.255,7.866,5.123,-2.765,3.55,-1.452
-2.117,8.66,4.25,-2.578,2.213,-2.836
-4.506,11.119,7.243,-2.212,0.861,-4.101
-6.66,15.359,12.934,-0.617,-0.049,-4.917
-10.338,15.288,23.263,1.648,1.056,-4.954
-14.421,11.838,35.547,3.8,2.557,-2.851
-21.452,-1.338,44.785,5.952,3.765,0.102
-18.906,-14.097,42.744,6.922,3.315,2.857
-20.554,-23.672,34.1,5.929,2.905,4.632
-19.497,-26.055,21.899,3.603,1.124,5.605
-17.182,-24.331,9.392,0.972,-0.347,4.776
-9.536,-12.62,-0.123,-1.677,-0.878,3.34
-9.893,-2.135,-1.104,-3.143,0.725,1.972
-6.787,3.882,3.511,-3.871,2.583,1.247
-3.183,6.377,7.094,-3.887,4.001,0.704
-1.359,8.45,9.169,-3.627,4.72,0.21
-0.027,9.89,9.31,-3.019,5.125,-0.361
-0.463,10.216,7.083,-2.354,4.276,-0.81
-0.304,10.378,3.836,-1.664,3.251,-1.495
-2.231,11.958,1.992,-1.281,2.262,-2.482
-1.939,15.713,4.025,-0.702,1.123,-3.455
-5.945,21.517,9.639,0.753,-0.494,-3.482
-10.146,20.346,23.13,2.575,0.041,-2.525
-15.561,14.609,34.447,4.287,0.587,-0.077
-19.462,0.98,40.998,6.245,0.87,1.925
-22.087,-13.025,36.781,6.654,0.188,3.915
-21.943,-24.969,27.262,5.039,0.563,4.732
-18.995,-26.384,13.786,2.295,-0.437,4.377
-15.055,-20.739,5.251,-0.686,-1.298,2.871
-10.663,-8.015,1.192,-3.468,-0.769,2.412
-7.63,1.311,3.322,-4.89,1.669,1.81
-4.064,6.816,8.595,-5.44,3.386,1.214
-2.277,9.299,10.868,-5.264,4.396,0.823
-0.847,8.953,9.988,-4.674,5.371,0.203
-0.66,8.572,8.307,-4.221,4.782,-0.927
-2.955,9.302,7.074,-3.764,3.311,-2.032
-5.668,11.581,6.082,-3.18,2.272,-2.773
-5.434,17.53,8.814,-2.038,1.494,-3.244
-6.695,21.712,15.61,0.157,0.328,-3.338
-9.803,19.97,28.562,2.485,0.954,-2.706
-12.91,15.015,40.094,4.834,1.918,-0.52
-16.16,1.867,47.025,7.001,2.363,1.667
-17.732,-13.311,43.934,7.247,1.259,3.454
-19.843,-22.865,33.957,5.598,0.918,4.317
-19.606,-23.704,18.488,3.233,-0.196,4.515
-17.089,-19.964,6.553,0.493,-1.145,3.449
-12.471,-8.889,-0.575,-2.319,-1.663,2.695
-11.794,-0.846,-0.316,-3.793,0.669,2.145
-7.76,3.945,3.512,-4.449,2.778,1.999
-4.325,6.749,7.259,-4.466,4.196,1.676
-2.329,7.432,8.532,-3.956,5.414,1.074
-1.444,7.133,7.861,-3.313,6.084,0.076
-1.143,8.079,6.005,-2.877,5.121,-1.195
-2.124,9.0,4.325,-2.761,3.596,-2.506
-4.037,11.66,5.012,-2.944,2.439,-3.881
-4.906,20.292,11.05,-1.855,1.438,-4.904
-10.532,21.932,24.357,0.315,1.845,-4.746
-13.799,18.172,38.715,2.534,2.715,-2.482
-19.758,7.626,46.473,4.919,4.072,-0.25
-15.481,-5.645,46.328,6.179,4.327,1.553
-17.52,-21.653,37.514,5.566,3.102,3.089
-14.911,-27.157,22.754,3.531,0.973,3.665
-14.705,-24.559,8.766,1.147,-0.92,2.948
-9.828,-13.727,2.206,-1.363,-2.31,3.069
-11.879,-3.737,0.542,-2.411,-1.745,4.015
-7.295,2.523,2.969,-2.805,0.725,4.548
-1.963,5.37,3.617,-2.801,2.89,4.515
2.55,5.552,2.719,-2.314,5.03,3.581
5.547,4.465,0.952,-1.661,5.599,1.614
4.732,3.892,-0.592,-1.43,4.418,-0.837
0.89,5.551,-1.107,-1.662,2.902,-3.239
-4.898,10.22,3.386,-2.028,2.168,-5.122
-9.576,16.688,9.648,-0.925,1.531,-5.636
-14.119,18.89,20.112,0.932,1.693,-4.111
-20.338,15.775,32.582,3.054,1.885,-1.44
-22.044,-1.63,41.092,5.432,2.216,0.724
-19.908,-14.901,36.034,7.066,1.075,2.923
-18.434,-26.451,28.632,6.004,-0.052,3.821
-19.174,-31.086,18.307,3.492,-1.563,3.385
-16.245,-27.233,7.782,0.855,-1.619,2.745
-13.857,-10.53,0.709,-1.763,-0.982,3.465
-11.832,-2.044,3.864,-3.549,1.092,3.858
-8.486,2.24,7.48,-4.025,3.219,3.889
-3.797,4.456,9.48,-3.597,5.668,3.374
0.824,4.408,9.457,-2.933,6.919,2.243
3.124,4.394,7.85,-2.313,6.192,0.392
2.135,5.029,5.002,-1.839,4.222,-1.447
-0.844,7.228,2.862,-1.816,2.215,-2.913
-3.574,11.257,3.957,-2.249,1.149,-4.25
-2.908,16.99,9.129,-1.48,0.137,-5.381
-11.156,18.502,23.379,0.519,0.311,-5.544
-13.959,15.217,38.697,2.593,2.212,-2.993
-17.178,-1.036,45.172,4.903,2.842,-0.658
-11.604,-14.197,41.889,6.075,2.313,0.955
-17.774,-25.641,33.987,5.1,1.481,2.538
-12.567,-29.29,19.508,3.092,1.048,3.344
-13.157,-26.774,4.872,0.675,-1.326,2.195
-10.969,-11.832,0.071,-1.794,-1.304,1.959
-14.984,-2.689,2.891,-3.113,-0.15,2.814
-9.736,1.341,6.557,-3.485,2.307,3.522
-4.637,2.87,8.775,-3.765,4.077,3.635
0.347,4.386,9.87,-3.415,5.902,2.995
4.359,5.689,8.023,-2.782,6.214,1.589
4.542,5.641,4.984,-2.085,4.575,-0.184
3.045,7.054,2.679,-1.699,2.709,-2.343
-0.258,9.332,2.03,-2.093,0.782,-4.316
0.418,16.241,6.363,-1.846,-0.398,-5.899
-8.092,17.657,22.473,-0.011,-0.666,-6.688
-11.334,13.876,37.083,1.957,1.61,-4.194
-16.578,0.618,43.86,4.075,1.79,-1.572
-15.157,-11.015,42.529,5.38,1.578,0.826
-19.125,-23.25,35.984,5.253,1.201,2.558
-15.638,-26.997,20.669,3.07,0.472,3.852
-14.816,-22.082,9.21,0.739,-1.079,2.709
-8.824,-8.656,4.029,-1.622,-0.666,2.405
-8.778,1.073,5.533,-2.553,0.817,2.689
-5.663,5.057,7.464,-2.957,3.103,2.904
-0.754,6.441,8.887,-3.061,4.798,2.657
1.986,6.578,7.175,-2.701,5.272,1.482
1.68,6.856,5.714,-2.095,5.079,-0.513
-0.525,7.453,4.397,-1.756,4.009,-2.722
-4.175,9.775,5.274,-1.59,2.542,-4.553
-6.749,15.215,9.674,-1.203,1.331,-5.532
-13.642,19.393,19.934,0.581,0.081,-5.164
-20.128,14.92,35.581,2.384,1.639,-2.798
-26.964,3.329,48.644,4.351,1.08,0.222
-26.414,-14.262,50.649,6.436,0.841,2.449
-26.53,-28.201,42.492,6.5,0.008,4.199
-23.256,-36.869,29.928,4.228,-0.251,4.638
-20.006,-33.222,15.501,1.498,-1.717,3.689
-11.603,-21.367,5.024,-1.2,-0.709,2.493
-9.914,-4.933,3.536,-3.506,-0.066,2.53
-7.025,3.118,7.089,-3.833,1.87,2.398
-2.548,6.816,9.52,-3.625,4.226,2.262
3.14,7.825,9.268,-3.087,4.973,1.459
2.939,7.696,6.276,-2.654,4.209,0.371
1.665,7.871,3.784,-2.419,3.633,-1.263
-1.378,9.815,2.795,-2.424,2.747,-2.929
-3.926,12.476,4.973,-2.385,1.732,-4.567
-6.98,18.027,12.413,-1.337,0.39,-5.301
-14.009,16.886,28.014,0.928,2.431,-4.904
-18.473,9.954,43.108,3.101,2.464,-2.277
-25.64,-8.425,52.034,5.267,2.671,0.425
-23.356,-22.578,49.153,6.241,1.497,2.951
-25.452,-34.949,37.985,5.234,1.355,4.435
-20.681,-36.463,22.016,2.65,-0.532,4.656
-16.322,-28.622,9.848,-0.009,-0.688,3.232
-8.075,-10.545,2.925,-2.456,-0.628,2.504
-7.711,0.817,4.462,-3.479,1.509,2.055
-3.54,6.569,8.486,-3.718,3.635,1.786
0.576,10.012,11.305,-3.376,5.502,1.145
2.813,9.435,9.374,-3.001,5.593,0.356
2.701,9.217,7.008,-2.612,5.24,-0.931
1.113,9.603,5.441,-2.341,3.843,-2.234
-1.385,10.905,4.517,-2.07,2.21,-3.437
-3.183,12.797,5.152,-1.964,0.904,-4.333
-3.295,18.391,9.924,-1.034,0.411,-5.25
-12.189,14.508,25.371,1.024,1.176,-5.642
-19.882,7.84,40.814,3.014,2.857,-3.129
-23.664,-9.403,47.03,5.134,3.594,-0.31
-20.373,-23.947,42.851,6.118,2.46,2.035
-22.268,-37.109,34.64,5.539,2.434,3.605
-16.125,-37.58,18.229,3.061,0.915,4.596
-10.868,-32.127,4.377,0.347,-0.938,3.009
-7.528,-14.641,1.221,-2.508,-1.726,1.895
-10.502,-2.379,5.212,-3.956,-0.112,1.853
-7.755,4.229,9.389,-4.538,1.416,2.389
-2.712,8.092,12.099,-4.425,3.471,2.702
1.661,9.27,11.333,-3.879,4.318,2.541
4.1,8.647,7.513,-2.964,4.509,1.646
3.378,7.755,4.105,-2.324,3.629,0.237
1.904,8.844,2.174,-1.848,2.544,-1.52
-1.587,11.632,1.782,-1.724,0.794,-3.37
-4.155,18.701,9.904,-0.761,0.82,-4.663
-11.663,20.23,24.597,1.18,1.91,-4.005
-16.122,15.77,35.578,3.138,1.925,-1.697
-22.191,1.571,42.619,5.178,3.299,-0.12
-19.246,-11.232,42.929,5.772,2.791,1.964
-21.16,-23.659,32.419,5.001,0.903,3.677
-16.664,-29.275,17.948,2.876,-0.706,3.546
-13.689,-25.788,8.947,0.365,-1.452,2.22
-8.902,-11.694,3.575,-2.245,-2.808,2.355
-10.355,-2.391,3.246,-3.355,-1.186,2.428
-7.657,1.702,6.992,-4.246,1.605,2.323
-6.037,4.639,10.026,-5.069,3.547,1.774
-5.058,4.914,10.757,-5.418,5.674,0.607
-5.199,4.549,10.979,-5.539,6.43,-1.146
-6.191,5.828,12.297,-5.191,6.189,-3.146
-7.897,8.681,14.94,-4.199,3.937,-4.504
-12.129,14.023,21.502,-1.657,2.43,-4.76
-20.131,12.631,29.788,1.203,1.827,-3.35
-26.727,3.886,40.201,3.935,2.266,-0.528
-30.422,-11.323,44.39,6.343,2.237,2.353
-25.787,-22.545,40.312,7.074,2.626,4.113
-21.499,-33.048,28.808,5.844,1.929,4.645
-16.009,-33.957,16.676,3.876,0.494,3.974
-10.717,-27.244,4.462,1.644,-1.139,2.444
-8.35,-13.099,-1.548,-0.803,-2.463,1.624
-12.11,-4.059,-1.555,-2.206,-1.878,1.906
-10.849,1.167,2.181,-3.13,0.035,2.645
-6.007,3.833,5.728,-3.656,2.137,2.934
-1.691,5.839,7.095,-3.745,3.426,2.716
1.337,6.7,6.061,-3.455,4.738,1.683
2.547,7.535,4.825,-2.891,4.904,-0.12
1.478,8.608,3.178,-2.252,3.899,-2.244
-0.713,10.332,3.817,-1.731,2.81,-4.272
-5.114,14.731,10.966,-0.787,1.829,-5.522
-14.788,14.234,24.497,1.37,1.426,-4.927
-22.113,7.418,36.844,3.353,1.879,-2.372
-29.394,-7.576,41.348,5.274,2.459,0.438
-24.382,-18.933,39.164,5.682,1.703,2.812
-22.665,-29.594,29.313,5.197,0.808,4.117
-17.778,-32.506,14.625,3.029,-0.216,3.714
-13.851,-26.846,3.9,0.64,-1.64,2.141
-8.56,-11.442,1.51,-1.825,-2.857,1.547
-12.781,-1.409,2.889,-2.603,-1.691,1.964
-10.7,3.531,6.192,-3.14,0.902,2.688
-4.574,5.873,9.879,-3.252,3.367,2.99
0.415,6.993,10.087,-3.001,5.262,2.394
3.472,6.715,7.897,-2.596,6.012,0.83
2.424,6.715,6.224,-2.312,5.177,-1.147
-0.289,8.264,4.697,-1.913,3.657,-3.155
-4.172,11.476,4.503,-1.619,2.146,-4.824
-7.124,17.645,9.159,-0.477,1.105,-5.605
-16.003,16.584,22.7,1.583,1.674,-4.721
-21.601,11.972,31.206,3.643,2.752,-2.043
-23.25,-5.691,37.617,5.01,3.744,0.213
-19.839,-17.788,35.215,5.409,2.585,2.397
-22.596,-29.424,26.442,4.234,1.144,3.947
-17.636,-30.155,12.353,1.698,0.195,4.305
-11.781,-25.095,5.985,-0.873,-1.073,3.432
-8.645,-8.15,0.956,-2.454,-1.253,3.387
-8.397,0.416,2.427,-2.882,1.006,3.315
-2.256,4.591,5.309,-2.743,3.238,3.009
1.893,6.131,6.3,-2.427,4.133,2.011
2.785,5.952,4.517,-1.857,4.864,0.393
2.642,6.032,2.754,-1.742,3.826,-1.615
-0.109,7.809,2.376,-2.013,2.469,-3.741
-5.071,12.858,7.131,-2.152,1.5,-5.296
-9.449,20.589,16.167,-0.288,1.566,-4.995
-17.089,17.624,28.428,1.713,1.51,-2.782
-25.589,9.367,38.398,3.81,1.792,-0.007
-24.147,-3.711,40.253,5.207,1.915,2.008
-23.61,-16.78,33.192,5.686,1.184,3.833
-22.404,-28.792,21.985,4.039,-0.469,4.126
-18.552,-27.163,10.272,1.784,-1.555,3.062
-11.059,-18.461,2.448,-0.558,-1.942,2.152
-10.977,-5.915,0.838,-2.031,-1.371,2.707
-7.6,2.244,4.42,-2.727,0.358,3.214
-2.726,5.645,7.059,-3.013,2.66,3.344
2.277,6.957,6.619,-3.052,4.367,2.578
3.163,6.99,5.173,-2.717,5.328,1.165
2.466,6.46,4.267,-2.313,4.993,-0.708
0.95,7.572,3.261,-1.954,3.795,-2.681
-2.552,9.953,5.382,-1.867,1.844,-4.4
-4.332,15.535,11.39,-0.878,0.668,-5.426
-8.242,17.902,22.33,1.128,0.553,-5.246
-14.595,14.688,31.94,3.087,1.105,-2.718
-20.287,-1.883,38.117,5.117,2.236,-0.956
-17.391,-13.417,35.098,6.024,2.018,0.706
-19.765,-24.641,27.309,5.36,1.09,1.944
-19.115,-28.526,16.061,3.024,-0.054,2.295
-14.648,-24.9,8.578,0.309,-0.823,1.392
-8.256,-9.395,3.803,-2.419,-1.468,2.021
-8.776,-0.275,5.712,-3.653,0.314,2.802
-4.013,4.989,8.185,-4.19,2.775,3.401
0.234,6.342,9.229,-4.092,4.526,3.359
3.474,6.27,7.436,-3.279,5.038,1.991
2.573,6.738,5.693,-2.538,4.366,-0.06
0.438,7.44,4.566,-2.06,2.942,-2.045
-3.462,8.769,5.176,-1.775,1.001,-3.786
-4.216,14.416,12.407,-1.198,-0.016,-5.038
-7.23,18.289,21.403,0.704,-0.344,-5.185
-9.099,17.323,34.296,2.691,1.338,-3.562
-13.625,0.165,44.704,4.49,2.414,-2.217
-13.803,-11.024,43.87,5.196,1.841,-0.37
-16.994,-22.876,34.023,5.37,1.609,1.124
-17.53,-29.394,23.778,3.317,0.857,2.121
-17.212,-28.395,11.672,1.086,-1.036,1.925
-12.355,-10.753,1.674,-1.027,-1.7,2.524
-9.887,-1.431,1.902,-1.928,0.799,2.846
-4.564,4.319,5.666,-2.94,2.61,3.112
-0.026,7.053,7.424,-3.243,4.095,2.852
2.917,7.927,6.546,-3.147,4.734,2.098
4.218,7.85,5.837,-2.737,4.27,0.857
3.498,8.27,4.554,-2.398,2.546,-0.675
1.515,9.268,2.664,-2.149,0.953,-2.305
1.423,14.884,9.355,-1.911,-0.163,-4.095
-2.469,19.752,19.453,0.168,-1.13,-5.158
-6.321,18.147,34.0,2.124,0.835,-4.376
-10.981,12.358,39.605,4.08,2.349,-2.311
-6.566,-0.846,43.547,4.713,3.129,-1.645
-12.928,-15.299,34.83,4.74,1.863,0.573
-12.947,-25.293,24.697,2.635,1.501,2.172
-13.138,-23.471,10.839,0.123,-1.112,2.377
-8.355,-15.6,6.727,-2.487,-2.311,2.183
-12.678,-3.515,4.236,-3.323,-1.498,3.889
-5.413,4.275,8.697,-3.612,1.594,3.789
0.624,8.107,10.375,-3.787,3.82,3.389
4.593,8.05,9.932,-3.637,5.026,2.409
5.425,6.485,8.863,-3.011,4.986,0.584
5.256,6.728,7.208,-2.771,2.933,-1.508
2.353,9.493,5.717,-2.756,0.997,-3.398
2.716,19.181,11.366,-1.574,-0.535,-5.135
-1.812,22.187,26.019,0.788,-0.136,-6.56
-5.426,20.694,41.261,2.893,1.643,-5.104
-13.937,9.699,49.938,5.037,3.478,-2.539
-11.805,-2.567,51.56,5.859,3.056,-0.079
-19.512,-18.846,42.078,5.224,2.643,2.062
-17.918,-25.948,25.819,2.991,1.869,3.965
-16.506,-24.48,12.005,0.149,-0.214,3.276
-8.227,-11.373,5.746,-2.662,-1.337,2.584
-9.509,-1.286,4.815,-3.778,1.02,2.451
-2.299,6.74,9.945,-4.478,3.509,2.205
2.159,10.07,12.515,-4.631,4.781,1.917
6.066,11.74,11.529,-4.002,5.404,1.439
6.815,10.06,8.447,-3.259,4.623,0.133
6.106,10.446,5.722,-2.656,2.583,-1.445
2.577,11.229,3.363,-2.369,0.409,-2.805
3.116,19.274,8.059,-1.354,-0.362,-4.42
0.467,22.279,16.401,0.858,-0.818,-5.849
-1.507,23.331,32.278,2.994,1.306,-6.047
-11.495,18.301,43.957,5.05,3.346,-3.545
-8.379,3.545,49.86,4.931,3.689,-1.445
-14.7,-13.102,43.032,4.382,1.837,1.167
-16.976,-23.238,31.548,2.093,1.515,3.073
-18.242,-24.521,16.696,-0.827,-0.826,3.702
-9.686,-16.982,8.271,-3.845,-2.401,2.905
-12.442,-4.51,4.41,-4.294,-0.883,3.33
-7.2,2.756,8.754,-4.909,2.249,3.119
-1.606,7.943,13.876,-5.144,4.265,3.204
3.382,8.596,15.011,-4.541,5.663,3.159
6.418,6.705,12.192,-3.661,5.5,1.986
6.848,7.362,9.199,-3.014,3.541,0.169
4.076,8.843,5.249,-2.806,1.391,-1.327
0.987,11.135,4.279,-2.621,-0.414,-2.997
1.007,17.532,9.503,-1.752,-1.172,-4.765
-1.285,20.828,20.479,0.386,-0.529,-6.283
-3.209,22.422,36.146,2.508,1.743,-5.826
-10.535,17.978,50.647,4.837,3.894,-3.239
-14.587,2.924,57.605,6.402,4.584,-0.529
-20.692,-13.11,49.865,5.724,2.986,2.436
-23.769,-21.804,36.407,3.112,1.577,4.672
-24.26,-25.4,21.42,-0.051,0.347,4.537
-19.313,-18.967,11.276,-3.437,-0.442,2.971
-15.736,-6.099,7.404,-5.706,0.895,2.122
-10.865,2.354,12.814,-6.281,3.987,1.462
-5.388,6.718,18.4,-6.216,6.139,1.361
-0.389,9.677,20.759,-5.288,7.026,1.304
4.757,8.862,17.375,-4.022,5.956,0.732
5.492,8.985,12.192,-3.04,3.559,-0.244
3.966,9.542,6.699,-2.59,1.577,-1.623
1.124,11.738,3.721,-2.484,-0.073,-3.294
0.27,19.099,5.593,-1.846,-1.739,-4.8
-5.52,25.045,19.916,0.247,0.119,-6.154
-10.391,26.407,35.802,2.308,2.516,-4.87
-24.835,15.466,52.119,4.558,4.34,-2.304
-26.118,-0.938,59.305,6.3,4.713,0.724
-32.83,-19.249,50.461,5.957,3.23,3.448
-32.161,-30.873,33.33,3.147,1.827,4.762
-31.756,-33.255,20.182,-0.182,-0.21,3.498
-18.633,-19.841,9.807,-3.163,-0.358,2.096
-15.603,-5.666,4.953,-5.415,0.61,0.837
-10.382,4.019,11.879,-6.365,3.653,0.298
-5.659,8.962,17.135,-6.245,5.033,0.748
0.637,11.172,17.327,-5.435,6.645,1.122
4.376,9.303,13.577,-4.966,5.96,0.63
4.672,9.921,10.777,-4.379,4.665,-0.202
3.778,11.086,7.516,-3.755,3.095,-1.499
2.272,12.623,5.01,-2.985,1.024,-2.994
1.941,17.961,7.825,-1.772,-0.763,-4.595
-3.694,23.811,21.677,0.74,0.435,-6.193
-10.522,25.477,37.113,3.102,2.391,-5.276
-24.204,12.541,53.345,5.001,4.411,-2.67
-22.982,0.164,61.961,5.8,3.344,0.553
-28.247,-17.119,51.657,5.617,3.697,2.394
-27.158,-28.635,32.489,3.016,1.885,3.613
-25.636,-33.432,17.555,-0.182,-0.618,2.692
-15.032,-20.019,6.598,-2.944,-2.134,1.239
-16.725,-9.885,1.234,-4.712,0.266,0.219
-12.123,0.134,8.758,-6.118,1.394,0.838
-8.298,4.621,15.361,-6.464,2.962,1.735
-0.991,9.113,17.986,-5.84,5.017,2.023
3.838,8.478,14.469,-4.995,4.864,1.947
6.007,9.607,9.623,-3.964,4.229,0.974
5.169,9.877,6.593,-3.032,2.921,-0.324
4.63,10.228,3.257,-2.099,0.73,-1.752
-0.371,11.22,2.101,-2.097,-1.374,-3.376
-0.478,20.358,8.526,-0.78,-0.905,-5.339
-4.203,26.818,24.977,1.106,0.49,-5.623
-8.964,25.242,40.928,3.069,2.101,-3.293
-18.756,8.175,52.703,5.013,4.535,-2.858
-20.171,-6.372,50.315,6.36,3.85,0.001
-23.84,-22.964,39.778,5.977,2.662,2.403
-23.182,-33.189,22.267,3.773,0.095,3.37
-20.939,-31.436,7.077,1.082,-2.277,2.181
-12.558,-13.653,-2.399,-1.611,-3.791,3.659
-8.598,-2.415,-0.29,-3.238,-1.149,3.58
-4.63,3.02,5.861,-4.65,1.239,3.552
-1.4,6.465,10.892,-5.113,3.259,3.336
1.675,6.87,12.193,-4.721,5.671,2.78
4.029,6.895,10.652,-4.167,5.945,1.572
3.571,7.825,8.12,-3.505,4.606,-0.249
1.961,9.951,5.095,-2.948,2.847,-2.004
0.847,14.464,6.757,-2.286,1.898,-3.948
0.571,21.638,12.776,-0.221,-0.519,-5.401
-5.824,23.344,28.192,1.988,0.72,-5.244
-21.072,14.614,44.467,4.178,2.296,-2.772
-22.21,-3.187,50.166,5.422,2.791,-0.265
-26.924,-17.385,41.027,5.322,1.027,2.194
-29.89,-29.85,30.187,3.155,1.446,3.441
-28.715,-32.747,16.463,0.276,-0.963,3.405
-14.912,-22.201,4.708,-2.56,-1.531,2.205
-13.181,-5.725,1.261,-4.31,-0.846,1.493
-8.039,2.97,7.677,-4.738,1.981,1.165
-3.991,7.919,12.584,-4.841,4.025,1.474
0.773,8.853,12.767,-4.464,5.512,1.605
2.638,7.223,9.382,-3.925,5.139,0.819
2.319,8.065,6.666,-3.432,4.11,-0.327
1.465,9.83,4.018,-3.048,2.607,-1.623
-0.714,14.302,5.573,-2.573,1.557,-3.256
-1.201,21.181,12.65,-0.485,0.802,-4.417
-6.756,24.021,27.79,1.814,1.67,-4.302
-13.553,21.911,43.716,4.033,2.803,-2.079
-23.741,3.491,53.212,6.182,4.74,-0.871
-23.84,-13.407,50.108,6.509,3.379,1.498
-25.806,-28.117,38.654,5.043,2.575,3.261
-22.882,-34.863,21.537,2.557,-0.115,3.706
-18.588,-32.712,7.171,-0.137,-2.217,2.319
-9.619,-14.028,0.334,-2.942,-3.971,2.81
-8.281,-1.467,2.257,-3.808,-1.467,2.772
-5.368,5.651,6.329,-4.58,1.013,2.627
-1.212,9.059,9.919,-4.559,3.365,2.219
2.06,8.627,8.995,-4.297,4.556,1.487
3.026,7.098,6.444,-3.96,4.935,-0.062
2.015,7.514,4.298,-3.934,3.289,-2.013
-2.235,10.82,5.459,-3.925,1.58,-3.74
-5.95,21.863,12.611,-2.524,1.257,-4.544
-13.707,23.568,27.901,-0.092,2.643,-3.117
-26.14,15.235,43.98,2.376,1.746,-0.631
-31.426,0.184,52.14,4.918,2.192,1.884
-31.087,-11.257,48.999,6.049,0.992,4.241
-33.721,-26.195,37.856,5.002,-0.583,5.498
-30.79,-29.556,21.304,2.485,-2.397,4.887
-19.582,-20.937,7.588,-0.224,-1.265,3.653
-14.203,-6.326,0.956,-2.811,-0.93,2.833
-11.396,1.709,3.428,-3.58,1.953,2.176
-5.817,5.409,7.061,-3.776,4.621,1.621
-1.223,7.307,9.909,-3.515,5.883,0.699
0.323,7.207,9.159,-2.997,5.992,-0.361
0.47,7.31,7.464,-2.5,5.784,-1.639
-0.517,7.804,4.727,-2.336,4.353,-2.897
-2.955,9.122,3.451,-2.295,2.899,-4.019
-4.582,13.467,8.575,-2.076,1.786,-5.115
-10.773,21.854,20.606,0.117,1.179,-4.618
-16.985,18.155,36.349,2.206,0.991,-2.139
-29.776,7.412,49.418,4.323,1.59,0.086
-29.18,-6.004,52.035,5.18,1.167,2.461
-31.298,-17.614,43.861,5.079,0.093,4.665
-28.891,-29.554,28.819,2.656,-0.632,4.933
-25.046,-25.912,13.75,-0.049,-0.913,3.438
-12.564,-13.389,3.879,-2.618,-1.433,2.859
-12.0,-1.354,3.61,-3.431,0.333,2.509
-7.245,4.67,7.124,-3.407,2.924,2.259
-1.903,7.29,10.501,-3.171,4.944,1.987
2.421,7.379,10.815,-2.61,6.12,1.228
4.127,5.53,8.097,-2.157,5.931,-0.21
2.587,5.017,4.298,-2.227,4.446,-1.735
-0.124,7.336,2.453,-2.339,3.214,-3.318
-3.583,10.79,5.962,-2.249,1.898,-4.823
-6.601,18.806,14.535,-0.781,-0.141,-5.369
-14.111,21.647,29.447,1.336,1.427,-4.68
-20.53,18.11,45.141,3.625,1.692,-2.123
-25.276,-0.176,54.187,5.73,2.532,-0.416
-26.624,-13.604,49.622,6.333,1.014,2.2
-28.93,-26.921,37.41,5.29,1.244,3.757
-24.722,-32.205,20.449,3.058,-0.931,4.177
-18.319,-27.825,6.714,0.431,-1.428,2.947
-12.794,-9.903,-0.789,-2.056,-1.548,3.13
-8.533,0.227,0.75,-3.089,1.229,2.477
-3.709,4.967,4.864,-3.779,3.413,1.933
-0.193,7.695,8.023,-3.853,5.042,1.076
1.472,7.154,7.287,-3.528,5.602,-0.174
0.416,6.276,4.712,-3.293,4.534,-1.664
-2.524,7.697,2.902,-3.185,3.608,-3.077
-5.124,11.883,4.908,-3.194,2.694,-4.508
-9.521,21.865,14.177,-1.939,1.754,-4.777
-15.83,22.498,29.564,0.363,2.196,-2.597
-27.719,15.052,43.747,2.736,2.572,-0.045
-28.498,-1.951,49.21,4.637,3.899,1.332
-29.236,-15.558,46.586,4.567,1.983,3.826
-27.628,-30.298,35.63,3.274,0.423,5.237
-24.418,-31.921,19.579,0.807,-1.173,4.263
-12.14,-24.195,7.336,-1.779,-1.259,3.023
-9.541,-6.166,3.787,-3.851,-2.458,3.354
-6.292,3.643,5.317,-3.569,0.614,2.736
-2.606,7.529,7.163,-3.411,3.318,2.119
1.164,8.447,8.284,-3.196,4.854,1.278
1.699,7.018,7.481,-3.032,5.188,0.056
0.417,5.136,5.513,-2.996,4.893,-1.714
-3.813,7.332,4.292,-3.488,3.121,-3.407
-9.614,14.386,8.45,-3.345,2.541,-4.523
-13.13,21.838,17.235,-1.173,3.427,-3.852
-17.613,22.151,26.325,1.25,2.173,-1.391
-25.151,14.892,36.042,3.804,2.862,1.369
-23.198,1.105,36.491,5.583,3.456,3.493
-22.503,-12.847,28.977,5.606,1.674,5.122
-23.413,-24.096,17.275,3.464,-0.774,5.139
-21.552,-25.03,7.481,0.911,-0.569,3.813
-13.443,-17.918,-0.973,-1.64,-1.402,2.79
-11.836,-7.1,-0.895,-3.324,-0.959,2.732
-7.207,-0.814,3.318,-3.981,1.514,2.528
-2.887,2.346,7.856,-4.535,3.614,2.118
-0.479,3.086,9.753,-4.657,5.221,1.323
-0.684,2.851,10.603,-4.763,5.959,-0.03
-2.932,3.959,10.822,-4.836,5.364,-1.759
-6.642,7.677,11.194,-4.768,4.019,-3.277
-10.066,17.828,18.78,-3.637,3.971,-4.245
-11.068,26.259,31.783,-0.962,2.544,-2.875
-19.415,22.625,45.15,1.695,1.803,-0.44
-28.902,9.282,53.421,4.369,1.98,2.125
-29.619,-6.031,51.932,6.288,1.478,3.918
-29.702,-22.026,38.914,5.677,-1.034,5.03
-33.279,-32.844,22.862,2.926,-2.006,3.878
-28.261,-28.745,9.666,0.079,-2.111,2.276
-18.464,-15.295,2.877,-2.813,-2.093,1.359
-14.973,-3.607,4.967,-4.772,-0.016,1.333
-9.302,2.655,10.731,-5.073,2.812,1.32
-1.936,5.532,13.421,-4.891,4.417,1.435
3.595,4.808,10.257,-4.507,4.646,1.18
4.62,4.329,5.674,-4.302,4.411,-0.031
2.978,6.082,2.151,-4.528,2.83,-1.8
-3.834,11.067,0.523,-4.699,1.338,-3.189
-6.785,22.028,12.538,-3.087,2.676,-4.517
-12.672,26.447,28.898,-0.625,1.816,-3.301
-21.174,19.812,45.842,2.063,2.61,-1.042
-28.495,4.466,55.531,4.939,2.077,1.857
-28.789,-12.109,53.228,6.379,0.752,4.147
-34.26,-28.043,34.65,5.181,-1.552,5.414
-35.238,-33.378,19.107,2.358,-1.37,4.127
-28.846,-27.077,6.802,-0.479,-1.314,2.796
-20.365,-14.391,2.785,-3.452,0.604,1.582
-14.301,-4.301,8.257,-5.064,2.749,0.849
-6.909,0.457,16.357,-5.733,3.88,0.922
-0.252,2.091,19.072,-5.594,5.079,0.818
1.987,4.448,16.551,-5.275,4.425,0.175
2.055,7.586,9.699,-4.59,2.663,-0.564
-0.529,12.65,5.324,-3.79,1.279,-1.482
-2.775,16.548,2.877,-2.94,0.299,-2.836
-6.005,23.737,7.771,-1.986,0.911,-4.204
-9.637,27.52,22.598,0.533,2.084,-3.975
-24.467,16.946,39.813,2.82,3.451,-2.02
-37.109,-3.124,55.625,4.921,4.013,0.438
-40.556,-21.641,55.979,5.846,3.391,3.407
-44.102,-34.828,44.4,4.972,0.871,5.485
-44.195,-41.625,28.124,2.063,-1.165,5.565
-30.253,-30.928,15.37,-0.731,-1.359,3.908
-17.365,-14.131,2.391,-3.337,-0.102,2.492
-11.615,-0.079,3.355,-4.942,1.982,1.072
-5.795,4.524,8.573,-5.074,4.156,0.749
-1.807,4.949,11.672,-4.815,5.541,0.412
-2.14,3.879,11.165,-4.554,5.145,0.146
-2.525,5.23,9.423,-4.149,4.604,-0.747
-4.768,8.018,8.044,-3.755,3.451,-1.866
-7.285,14.444,9.949,-3.328,2.772,-3.454
-6.563,24.811,16.09,-1.3,1.594,-4.495
-12.381,31.239,29.351,1.233,2.776,-4.631
-26.602,22.227,44.073,3.433,2.274,-2.323
-33.61,3.545,57.64,5.693,2.815,0.378
-39.809,-16.329,53.936,6.766,0.732,3.354
-46.205,-31.489,41.054,4.797,0.773,4.881
-42.746,-39.571,25.819,1.539,-1.659,5.089
-29.532,-29.026,13.681,-1.23,-1.134,3.641
-21.387,-12.566,2.761,-3.651,0.171,2.337
-11.035,0.627,5.021,-4.896,3.363,0.959
-3.529,5.359,10.522,-4.805,4.462,0.384
0.657,6.567,10.976,-4.19,5.068,-0.052
1.379,3.411,8.418,-4.191,4.167,-0.849
-0.892,4.403,5.907,-4.433,2.877,-1.958
-4.867,8.001,5.416,-4.414,1.597,-3.055
-9.519,14.082,9.89,-3.756,0.62,-3.928
-14.825,23.694,21.69,-1.113,2.209,-3.933
-18.152,22.503,36.386,1.657,2.778,-1.688
-27.369,11.197,51.368,4.32,2.844,0.725
-28.163,-2.97,54.75,6.438,2.151,3.013
-30.606,-14.721,47.591,6.332,0.573,4.71
-30.327,-26.801,34.631,3.774,-1.108,5.352
-28.031,-25.947,19.469,1.007,-1.872,3.809
-17.708,-15.532,4.868,-1.712,-1.814,2.456
-14.827,-4.887,1.469,-4.13,0.306,1.447
-8.813,-0.085,5.234,-5.011,3.121,0.938
-4.387,1.526,7.238,-5.327,3.833,0.742
-3.023,1.46,8.424,-5.444,4.754,0.184
-3.194,1.442,8.845,-5.766,4.653,-1.015
-5.709,3.86,9.608,-5.917,3.249,-2.397
-10.001,8.185,12.713,-5.366,2.26,-3.543
-17.803,16.026,23.938,-2.666,2.109,-4.035
-23.019,16.078,37.915,0.219,3.116,-1.935
-31.903,4.154,51.411,3.259,3.344,0.618
-29.665,-10.123,56.884,5.584,3.837,2.532
-28.105,-20.472,51.061,6.128,2.056,4.421
-24.79,-30.408,35.693,4.274,0.875,5.234
-22.563,-31.207,17.876,1.735,-0.993,3.869
-14.389,-19.176,3.583,-1.03,-1.611,2.639
-15.786,-6.243,-2.659,-3.03,-1.663,2.492
-13.503,0.384,-0.321,-3.639,1.217,2.27
-7.376,2.732,3.558,-3.957,3.234,2.155
-2.378,3.469,6.085,-3.852,4.31,1.499
-0.296,2.602,5.72,-3.65,4.657,0.487
0.206,2.162,6.018,-3.812,3.905,-0.939
-2.973,3.0,5.472,-4.112,2.826,-2.401
-7.932,5.39,6.81,-4.399,1.911,-3.94
-13.177,10.993,13.427,-3.984,1.243,-4.929
-18.139,22.053,25.38,-1.421,2.062,-4.65
-21.848,20.135,39.427,1.328,3.592,-2.158
-26.702,5.458,53.691,3.971,3.511,0.56
-24.485,-7.144,55.587,6.195,2.621,2.845
-26.305,-17.67,47.486,6.304,0.954,4.411
-27.325,-30.134,33.993,3.921,-0.594,4.978
-25.886,-28.837,18.604,1.145,-1.614,3.875
-18.923,-14.779,4.776,-1.577,-0.973,2.82
-17.611,-4.529,2.438,-3.596,1.354,2.474
-10.67,0.569,5.669,-3.936,4.321,2.324
-3.701,2.664,8.271,-3.717,5.863,1.746
0.737,3.854,8.643,-3.097,6.374,0.457
0.983,3.823,6.293,-2.759,5.838,-1.28
-0.18,5.157,4.07,-2.73,4.195,-3.097
-4.605,7.66,3.125,-2.959,2.545,-4.781
-8.128,12.854,7.392,-2.723,0.925,-5.835
-15.675,22.434,19.986,-0.569,1.725,-5.439
-20.702,20.218,36.164,1.816,0.945,-2.647
-30.654,10.516,48.949,4.217,1.311,0.409
-28.338,-1.282,50.855,5.898,1.281,2.946
-30.924,-12.426,44.234,5.936,0.814,4.473
-27.601,-24.691,29.633,3.523,-1.348,4.595
-25.384,-22.631,13.822,0.777,-0.889,2.81
-15.879,-13.016,2.429,-1.931,-1.147,1.19
-15.727,-2.567,0.999,-3.643,-0.248,0.613
-9.75,3.474,3.59,-4.142,1.635,0.728
-4.894,5.43,5.839,-4.091,2.864,0.959
-0.436,5.114,6.142,-3.779,3.463,0.8
1.478,4.27,4.772,-3.631,3.76,0.035
0.946,2.846,3.847,-4.064,2.499,-1.269
-4.124,5.092,3.445,-4.308,1.856,-2.684
-9.3,9.917,4.115,-4.107,1.825,-4.112
-15.012,18.218,10.251,-2.761,0.963,-4.96
-20.151,26.505,24.908,-0.201,2.2,-4.469
-25.974,23.874,39.846,2.742,3.323,-1.846
-33.302,9.867,52.788,5.375,3.336,0.954
-30.038,-5.584,54.321,7.02,2.286,3.281
-27.457,-19.001,45.416,6.599,1.728,4.707
-23.794,-29.748,28.382,4.581,-0.216,4.837
-16.861,-27.117,12.414,2.232,-0.953,2.83
-5.66,-15.475,-1.216,-0.154,-1.628,0.601
-5.603,-4.309,-3.124,-2.106,-1.613,-1.077
-4.268,1.789,1.142,-2.968,-1.277,-2.27
-4.852,6.68,5.07,-2.646,-1.531,-2.985
-8.721,10.987,9.204,-1.501,-1.992,-3.487
-13.687,12.712,17.079,0.569,-1.682,-3.749
-15.648,15.609,31.559,3.038,0.367,-2.869
-21.411,8.31,45.571,5.408,0.683,-0.31
-31.08,-10.857,58.356,7.105,2.24,2.168
-28.021,-25.252,56.73,7.82,2.145,4.584
-24.904,-32.405,46.415,6.157,1.476,6.158
-24.081,-37.291,30.008,3.742,-0.858,6.23
-21.249,-31.094,13.474,1.22,-1.079,4.657
-13.587,-14.876,-1.193,-1.542,-1.78,3.209
-14.051,-2.807,-2.003,-4.0,-0.712,1.696
-13.585,4.26,2.547,-4.846,1.063,0.993
-11.886,7.027,6.41,-5.181,3.151,0.841
-7.247,7.476,10.164,-5.327,4.68,0.7
-2.524,7.71,12.481,-5.159,4.883,0.478
-0.533,6.07,12.538,-4.661,4.828,0.375
1.359,4.861,10.794,-4.187,3.699,0.025
-0.653,5.296,8.399,-3.763,1.879,-0.544
-2.684,7.981,6.68,-3.279,0.874,-1.588
-5.288,13.63,9.049,-2.885,0.468,-3.041
-2.02,23.828,20.726,-0.654,1.71,-3.942
-4.062,23.621,35.493,1.697,1.395,-2.993
-11.016,14.845,50.433,4.023,2.22,-1.006
-15.515,1.216,54.893,6.207,2.667,0.96
-16.583,-10.837,50.408,6.703,1.488,2.988
-24.476,-23.352,35.508,4.588,-1.151,4.07
-25.867,-24.609,18.522,1.915,-0.811,3.429
-19.313,-17.531,3.438,-1.079,-1.115,2.08
-15.455,-6.286,0.029,-3.987,-0.735,1.529
-13.816,-0.457,3.179,-5.002,1.988,1.278
-8.014,1.737,7.288,-5.213,4.133,1.272
-3.878,2.731,9.876,-5.198,4.326,1.536
-1.373,2.998,9.894,-4.591,4.724,1.542
0.299,4.544,8.185,-3.946,4.459,0.835
-0.439,6.372,4.801,-3.416,3.212,-0.315
-3.974,8.999,2.901,-3.029,2.564,-1.497
-6.789,12.637,3.319,-2.68,2.812,-2.981
-6.512,20.23,12.667,-1.805,3.313,-3.877
-8.578,22.699,26.341,0.453,1.59,-2.645
-16.392,16.514,42.208,2.644,-0.208,-0.808
-23.098,-1.061,49.079,4.798,-0.548,0.94
-23.941,-14.022,47.451,6.029,-1.144,2.913
-26.914,-26.035,34.633,5.003,-2.946,3.856
-29.198,-31.058,19.026,2.139,-1.825,3.026
-21.466,-25.954,4.865,-0.676,0.289,1.976
-14.608,-10.6,-0.143,-3.364,1.185,1.507
-11.922,-1.756,2.889,-4.722,2.977,1.013
-7.667,2.121,7.773,-4.613,4.608,0.904
-1.83,2.911,10.442,-4.223,4.922,0.789
0.483,2.642,9.598,-3.872,4.763,0.392
1.481,2.738,8.17,-3.779,4.226,-0.85
-1.534,3.863,6.095,-3.833,3.043,-2.461
-8.185,6.495,6.198,-3.809,2.203,-3.937
-14.75,10.313,8.626,-3.562,2.267,-4.902
-19.548,16.909,15.359,-2.274,2.43,-4.652
-21.692,20.036,25.512,0.256,3.134,-2.202
-24.758,15.07,33.664,2.748,2.024,0.811
-26.807,5.583,39.85,5.152,1.07,3.335
-29.052,-7.781,36.576,7.299,-0.196,4.981
-29.053,-19.67,25.559,7.113,-0.99,5.733
-28.25,-25.461,11.414,4.981,-2.541,4.647
-24.808,-21.244,1.581,2.468,-1.487,3.351
-18.343,-13.992,-5.199,0.011,0.811,2.514
-9.897,-4.725,-3.672,-2.365,2.736,1.978
-4.287,0.538,1.354,-3.349,3.081,1.377
-1.369,3.286,4.137,-3.385,4.364,0.717
2.977,4.121,3.83,-2.965,5.037,-0.54
2.079,4.11,1.099,-2.656,3.646,-1.83
-0.439,5.302,0.127,-2.237,2.871,-3.2
-3.912,6.196,-1.854,-2.061,2.611,-4.724
-8.71,9.434,0.981,-2.207,2.381,-6.24
-14.66,17.854,11.356,-1.613,0.676,-6.161
-19.967,21.126,26.867,0.535,1.871,-3.793
-27.621,14.821,39.267,2.576,0.851,-0.806
-34.483,2.314,45.528,4.746,0.672,1.8
-33.109,-9.931,42.582,5.926,-0.222,4.506
-31.714,-23.534,30.208,5.342,-0.396,5.836
-28.202,-28.177,14.276,2.928,-1.792,4.87
-20.817,-22.877,1.778,0.255,-0.428,3.581
-11.595,-10.06,-0.653,-2.376,0.743,2.719
-8.031,-0.902,1.648,-3.519,1.996,1.856
-3.803,4.887,6.465,-3.714,3.91,1.112
0.538,7.408,8.168,-3.279,5.36,0.114
3.761,9.067,6.933,-2.585,5.441,-1.175
3.234,8.726,3.596,-2.025,4.38,-2.414
1.128,9.441,0.8,-1.735,2.983,-3.615
-3.548,10.965,-0.643,-1.833,2.231,-4.681
-5.639,16.711,7.267,-1.709,1.733,-5.129
-14.411,22.086,19.344,0.27,0.611,-3.691
-22.99,17.384,34.189,2.34,-0.449,-1.041
-30.183,5.99,45.679,4.393,0.671,1.235
-29.319,-6.954,48.676,5.79,0.1,3.694
-31.068,-18.911,39.752,5.715,-1.64,5.461
-27.086,-27.901,26.085,3.335,-1.715,5.137
-21.74,-24.374,11.796,0.408,-0.389,3.776
-14.435,-13.234,3.487,-2.467,0.058,2.776
-12.125,-1.292,3.482,-4.337,1.052,1.95
-8.365,5.19,6.886,-4.767,3.257,1.573
-3.823,7.96,9.963,-4.592,4.963,1.494
0.83,8.879,9.895,-3.635,6.256,0.849
2.633,8.261,7.436,-2.759,5.703,-0.193
1.933,6.547,3.808,-1.969,5.0,-1.733
-0.85,6.394,1.687,-1.881,3.747,-3.641
-5.923,10.641,3.335,-2.187,2.629,-5.304
-10.72,18.248,11.86,-1.03,1.592,-5.412
-17.008,18.391,24.592,0.969,1.122,-3.495
-22.614,13.424,35.705,3.028,1.311,-0.634
-29.056,2.622,39.618,5.259,1.571,2.374
-26.774,-10.094,37.888,6.406,1.202,4.76
-26.211,-22.353,27.143,5.294,-0.535,5.606
-24.565,-24.107,14.292,3.22,-0.456,4.893
-18.281,-20.159,3.797,0.855,-0.179,3.335
-10.712,-9.318,0.959,-1.747,-0.656,2.118
-9.244,-0.806,1.239,-2.779,0.808,1.32
-4.997,4.994,4.441,-3.285,3.731,0.663
0.131,7.158,5.103,-3.582,4.122,-0.133
0.236,9.746,4.849,-3.431,3.986,-0.867
-0.003,9.577,2.934,-2.985,4.667,-1.917
-1.151,10.254,1.537,-2.86,3.783,-2.95
-3.328,11.077,1.915,-2.721,2.822,-3.739
-4.52,15.138,6.031,-2.176,2.321,-4.104
-9.093,18.384,14.362,-0.619,1.11,-3.44
-13.911,16.357,26.607,1.58,0.321,-1.645
-22.897,7.288,37.107,3.851,-0.684,0.313
-25.296,-5.924,37.175,6.142,-0.744,2.283
-25.798,-17.605,32.174,6.224,-1.193,3.87
-22.902,-25.542,22.652,4.431,-1.335,4.247
-20.282,-24.972,10.762,1.836,-1.023,3.685
-10.978,-17.063,1.548,-0.896,0.154,3.076
-7.418,-5.04,2.021,-3.499,0.481,2.449
-6.043,3.781,4.859,-4.189,2.132,1.751
-3.45,7.956,6.757,-4.012,4.717,0.944
0.484,9.135,6.94,-3.523,5.677,0.023
1.684,9.859,5.689,-2.848,5.122,-1.074
0.972,9.758,2.943,-2.232,4.221,-2.326
-0.956,10.001,0.368,-1.833,3.088,-3.657
-3.054,14.56,3.125,-1.4,1.925,-4.321
-7.139,19.179,11.808,0.002,0.971,-3.727
-13.749,18.493,23.199,2.059,-0.014,-1.722
-22.99,10.801,32.053,4.046,-0.662,0.928
-25.867,-1.399,34.505,6.001,-1.178,3.308
-28.198,-12.57,29.27,6.38,-2.461,4.809
-27.397,-19.912,18.908,5.051,-2.901,4.704
-24.199,-19.831,7.05,2.59,-2.16,3.451
-16.22,-13.034,-0.442,0.012,-1.126,2.044
-13.263,-3.035,-0.848,-2.537,0.331,1.301
-9.666,2.59,3.464,-3.561,2.783,0.832
-6.897,5.272,7.015,-3.998,4.406,0.602
-4.024,6.184,9.875,-3.962,5.572,0.138
-1.748,7.034,9.662,-3.656,5.567,-0.612
-1.377,8.074,7.579,-3.33,4.541,-1.58
-2.08,9.088,4.391,-3.159,3.217,-2.548
-3.891,10.893,3.089,-2.975,2.212,-3.55
-4.433,14.508,4.734,-2.404,1.51,-4.151
-5.205,17.757,10.228,-0.631,0.143,-4.138
-8.092,17.886,19.954,1.671,1.09,-3.73
-10.634,14.61,30.052,3.986,1.359,-1.626
-17.62,3.36,38.36,6.271,2.413,0.655
-16.812,-9.905,35.896,6.615,1.897,2.814
-20.114,-18.712,27.785,5.006,1.936,3.871
-19.54,-21.507,17.244,2.631,0.649,4.455
-17.932,-19.505,8.23,0.028,0.198,3.733
-10.057,-9.87,0.816,-2.572,-0.374,3.141
-9.516,-0.432,0.938,-3.555,1.155,2.275
-4.794,5.264,4.617,-3.794,3.342,1.732
-0.46,7.781,6.309,-3.734,4.556,1.159
1.618,9.418,6.198,-3.335,4.91,0.46
1.916,9.699,3.818,-2.717,4.379,-0.473
0.463,9.725,1.229,-2.148,3.193,-1.526
-1.376,10.721,-0.659,-1.651,2.183,-2.814
-2.84,14.238,3.035,-1.11,1.388,-4.078
-4.878,18.094,9.571,0.609,0.514,-4.526
-10.084,19.066,21.969,2.591,1.713,-3.423
-16.826,13.851,32.291,4.515,1.71,-0.951
-20.407,-0.196,37.54,6.095,2.035,1.13
-22.189,-12.035,32.051,6.103,0.739,3.39
-24.402,-20.057,23.702,4.404,0.541,4.411
-22.099,-23.124,11.387,1.863,-1.012,4.16
-16.233,-18.598,3.039,-0.764,-0.896,2.961
-12.527,-6.137,-0.506,-3.045,-0.892,2.705
-10.523,1.742,2.963,-3.688,1.595,2.347
-5.484,4.886,6.338,-3.793,3.546,2.027
-1.731,7.124,8.387,-3.468,4.661,1.448
0.192,7.98,7.802,-2.904,4.984,0.6
0.425,8.14,5.48,-2.431,4.651,-0.507
0.075,9.147,2.915,-2.005,3.879,-1.841
-0.408,11.516,1.213,-1.627,2.941,-3.282
-3.277,17.062,4.609,-1.161,1.842,-4.152
-9.93,19.742,16.21,0.901,1.831,-2.846
-18.678,15.953,27.123,2.981,-0.033,-0.596
-25.953,2.734,33.202,4.963,0.428,1.061
-26.543,-7.8,32.681,5.513,-0.226,3.394
-26.496,-17.957,26.785,5.052,-0.971,4.796
-23.695,-22.628,13.932,2.729,-2.173,4.091
-17.864,-19.286,3.445,0.279,-0.454,2.956
-11.563,-6.997,-1.512,-2.188,-0.762,2.924
-11.459,1.323,-0.197,-3.255,0.769,2.532
-8.552,6.194,3.276,-3.175,3.473,2.283
-2.771,8.928,5.115,-2.513,5.15,1.961
1.123,9.655,5.381,-1.507,5.442,1.331
3.467,8.751,4.917,-0.394,5.629,0.396
4.929,7.533,3.04,0.572,4.639,-0.354
5.831,6.362,0.23,1.207,2.817,-1.024
6.215,6.938,-1.485,0.849,1.247,-2.404
8.304,11.224,2.152,0.049,0.062,-3.961
2.822,18.377,10.983,0.677,-1.107,-4.134
-9.489,15.448,25.611,2.14,-2.722,-3.053
-22.862,2.148,33.686,3.635,-2.073,-1.761
-26.557,-13.72,34.228,4.843,-0.797,0.667
-29.09,-26.092,29.199,4.49,-0.957,3.193
-27.135,-35.092,19.39,2.399,-1.759,4.215
-18.636,-29.78,6.592,-0.089,-0.124,3.984
-6.951,-15.041,1.07,-2.349,0.006,3.903
-5.465,-0.447,2.604,-3.53,0.463,3.339
-4.352,7.105,5.708,-2.709,3.03,2.414
-0.559,9.926,7.76,-1.649,5.568,1.353
3.285,8.819,7.168,-0.862,6.156,-0.07
4.023,7.693,4.608,-0.264,6.019,-1.901
4.164,6.343,1.577,-0.17,4.901,-3.883
1.807,6.487,-1.353,-0.832,3.254,-5.592
0.143,10.319,-0.335,-1.521,1.504,-6.846
-12.494,14.028,11.502,-0.804,1.514,-6.581
-19.626,12.643,21.944,0.859,-0.426,-3.863
-29.074,2.177,32.246,2.757,0.121,-1.349
-30.267,-10.958,35.518,5.194,0.803,1.528
-29.161,-22.864,33.529,5.802,0.695,4.165
-20.36,-30.21,20.274,4.361,-1.561,5.339
-17.844,-29.946,10.087,1.928,-0.454,4.465
-9.698,-18.874,2.529,-0.503,-0.834,4.22
-7.389,-5.72,1.578,-2.761,-1.121,3.677
-7.558,1.808,1.785,-2.991,0.307,3.019
-4.381,5.079,2.94,-2.671,3.13,2.196
-0.368,5.659,2.908,-2.532,4.229,0.77
-1.237,4.711,2.688,-2.498,4.625,-0.994
-2.799,4.225,1.96,-2.418,4.569,-2.85
-6.179,4.29,2.157,-2.826,3.18,-4.372
-10.685,5.468,4.829,-3.273,2.264,-5.284
-13.354,9.041,9.344,-2.769,1.657,-5.291
-16.726,14.256,18.098,-1.073,1.257,-4.04
-20.872,13.287,29.202,1.104,0.574,-1.502
-25.474,4.033,39.272,3.581,1.204,1.317
-23.575,-7.662,40.931,5.891,0.353,3.524
-23.479,-17.204,37.722,6.37,-0.594,4.874
-22.504,-23.761,27.626,5.263,-1.762,5.108
-21.252,-23.669,15.759,3.144,-1.334,4.554
-14.638,-14.914,5.559,0.771,-1.092,3.713
-12.471,-4.464,1.72,-1.357,-0.312,3.107
-9.745,1.645,1.293,-2.251,1.584,2.628
-5.073,3.573,2.593,-2.523,4.106,1.915
-0.738,4.233,3.656,-2.613,4.767,0.544
-1.355,4.689,3.566,-2.485,4.695,-1.094
-4.292,4.853,3.725,-2.561,4.369,-2.666
-7.447,5.485,5.19,-3.019,3.764,-4.057
-10.155,10.3,8.037,-3.505,2.424,-4.796
-14.267,17.293,14.475,-2.432,1.66,-4.269
-18.737,18.35,25.506,-0.187,1.835,-2.264
-22.586,12.431,35.294,2.258,1.867,0.551
-25.08,-0.574,38.159,4.92,1.522,3.009
-23.665,-14.989,33.82,6.021,1.032,4.792
-21.782,-26.053,24.196,5.07,-0.057,5.065
-20.003,-28.48,11.492,2.779,-1.165,4.04
-15.419,-21.907,1.676,0.306,-1.284,2.778
-10.638,-9.209,-2.123,-2.237,-1.072,2.396
-9.094,0.196,-0.038,-3.17,0.463,2.149
-5.292,4.295,2.949,-3.524,2.795,1.855
-1.198,5.942,3.965,-3.711,3.846,1.281
-0.906,5.647,2.82,-3.59,4.126,0.095
-1.694,6.07,2.315,-3.297,4.266,-1.671
-4.366,6.964,1.001,-3.349,3.423,-3.468
-8.218,8.999,3.249,-3.511,2.955,-4.881
-11.657,15.806,12.463,-2.964,2.257,-5.275
-15.154,16.754,24.48,-0.612,1.556,-4.146
-19.71,10.983,36.045,1.639,2.524,-1.752
-20.82,-1.657,42.54,4.09,2.043,0.811
-20.405,-14.773,41.296,5.855,1.062,3.148
-19.529,-28.697,29.84,5.844,0.374,4.508
-18.796,-33.42,16.508,3.491,0.282,4.305
-15.609,-28.902,5.222,0.84,-1.264,3.257
-13.683,-16.069,0.899,-1.752,-0.802,2.689
-11.366,-4.813,2.291,-3.286,0.586,2.662
-6.849,1.641,6.29,-3.701,2.481,2.665
-1.963,4.566,8.234,-3.789,4.117,2.504
2.275,5.065,6.399,-3.436,4.818,1.45
1.983,4.717,4.376,-3.348,4.054,-0.058
-0.451,5.584,1.52,-3.415,3.35,-2.067
-4.936,7.551,1.249,-3.725,3.062,-4.303
-8.075,11.903,9.221,-3.293,2.276,-5.766
-16.579,13.664,22.645,-1.216,2.215,-5.141
-19.977,9.615,34.386,1.288,4.009,-2.836
-21.829,-6.467,44.27,3.727,3.826,-0.093
-18.462,-19.679,45.484,5.897,3.193,2.405
-17.051,-30.942,35.387,6.293,2.244,4.163
-13.338,-36.399,21.612,4.557,1.174,4.218
-11.932,-34.31,9.47,2.287,-0.484,2.946
-10.456,-19.695,0.179,-0.223,-0.902,2.095
-12.445,-8.911,-1.854,-2.441,-0.867,2.192
-11.588,-1.662,2.582,-3.538,0.816,2.642
-6.366,2.236,6.591,-4.069,2.991,2.828
-1.279,5.025,7.609,-4.243,3.712,2.479
1.449,6.931,6.21,-3.942,4.064,1.534
1.611,7.828,4.51,-3.372,4.074,0.222
1.073,8.622,1.205,-2.917,3.011,-1.406
-2.54,11.566,-0.123,-2.85,1.902,-2.841
-4.049,16.813,7.759,-2.193,2.411,-3.881
-9.344,17.689,22.27,0.016,1.023,-3.769
-15.564,13.916,37.15,2.16,2.458,-2.372
-21.577,-0.832,46.034,4.415,2.663,-0.079
-20.338,-16.294,47.416,5.797,2.33,2.183
-21.0,-29.284,37.96,5.626,0.343,4.122
-19.931,-34.295,22.319,3.626,0.796,4.629
-15.208,-31.41,7.876,1.417,-1.028,4.159
-9.701,-17.576,0.383,-1.039,-1.738,3.469
-10.032,-5.326,-1.727,-2.381,-1.5,3.199
-9.353,-0.016,-0.759,-2.995,1.229,2.579
-4.499,2.353,2.367,-3.656,2.918,1.831
-2.583,3.428,3.913,-4.249,3.115,0.8
-4.319,3.438,4.074,-4.424,4.501,-0.68
-5.387,3.738,4.015,-4.699,4.821,-2.425
-7.964,5.622,4.636,-4.745,3.573,-3.881
-13.157,7.69,7.823,-4.925,3.288,-4.621
-19.319,7.067,16.532,-3.268,3.285,-4.469
-20.975,7.474,27.847,-0.637,2.812,-2.595
-25.522,-0.833,36.998,2.019,2.374,0.15
-26.263,-14.702,40.597,4.639,2.312,2.744
-20.893,-26.118,36.782,6.266,1.445,4.74
-16.31,-29.967,25.828,5.312,0.47,5.77
-15.375,-31.386,13.048,3.178,-0.472,5.162
-11.023,-23.357,3.555,0.939,-1.317,4.217
-9.096,-9.804,-0.182,-1.092,-1.644,3.714
-10.3,-0.345,-0.456,-1.835,-0.457,3.348
-7.258,3.263,0.435,-1.851,1.891,2.692
-3.113,3.723,0.731,-1.983,3.451,1.554
-2.224,2.836,0.459,-2.214,4.867,-0.183
-1.761,1.806,-0.867,-2.735,5.227,-2.365
-5.025,2.281,-0.938,-3.662,4.232,-4.411
-9.427,5.043,2.699,-4.376,3.092,-5.919
-18.359,10.465,13.058,-3.468,2.09,-5.872
-22.126,15.382,26.938,-0.998,1.27,-4.023
-29.575,7.417,40.913,1.554,2.463,-0.936
-28.54,-2.801,45.466,4.261,2.231,2.292
-27.753,-12.884,43.942,6.156,1.871,4.734
-21.021,-21.572,32.536,5.844,0.983,6.11
-18.877,-26.625,17.226,3.972,0.194,6.109
-11.894,-17.953,2.962,1.749,-1.287,5.268
-9.169,-7.638,-1.737,-0.382,-0.933,4.249
-5.889,0.208,-3.375,-1.792,-1.003,3.568
-6.323,3.437,-3.366,-2.551,-0.133,2.697
-4.301,3.638,-3.198,-3.059,1.815,1.306
-5.305,2.608,-1.405,-3.574,2.75,-0.279
-6.97,1.802,-0.683,-4.087,3.722,-2.081
-11.969,2.036,2.047,-4.98,4.25,-3.689
-14.322,5.645,8.708,-5.099,4.676,-4.743
-19.541,12.474,16.983,-3.896,3.581,-4.175
-18.489,16.271,26.107,-1.157,3.95,-2.232
-20.993,12.902,34.075,1.663,1.936,0.493
-20.19,1.475,37.147,4.9,2.185,1.847
-17.742,-9.62,30.967,6.627,1.458,3.714
-13.912,-21.366,22.096,5.982,1.178,4.036
-14.277,-27.167,11.083,3.464,-1.048,3.149
-13.244,-23.303,3.021,0.756,-0.675,2.164
-10.458,-11.747,-0.538,-1.904,-0.765,2.959
-8.001,-3.384,2.415,-3.545,0.454,2.811
-5.23,2.053,5.53,-4.194,1.619,2.76
-2.833,4.432,7.701,-4.198,4.083,2.123
1.131,3.675,7.657,-4.132,5.158,0.544
1.081,2.436,6.486,-4.42,4.025,-1.619
-4.451,2.707,7.335,-4.837,2.95,-3.779
-11.939,6.468,12.52,-4.381,2.973,-5.39
-16.218,12.316,18.078,-2.263,1.142,-4.979
-22.342,13.768,24.625,0.378,1.427,-2.909
-23.072,11.567,32.74,3.327,2.511,0.215
-23.544,6.442,35.877,6.206,2.334,2.142
-15.678,-5.003,31.538,7.781,2.054,3.007
-14.72,-17.235,25.696,6.181,1.961,3.02
-10.434,-21.128,18.37,3.488,-0.224,2.022
-11.429,-18.651,10.637,0.5,-2.199,0.542
-7.157,-13.278,7.018,-2.434,-2.748,0.484
-8.789,-3.12,6.263,-4.856,-3.931,1.467
-6.201,4.839,5.525,-5.515,-3.447,1.755
-5.282,7.775,3.93,-5.735,-1.821,1.485
-6.542,6.657,6.607,-5.913,-0.852,1.521
-7.833,4.446,5.549,-5.671,0.186,1.272
-10.781,3.978,9.363,-5.266,0.304,0.988
-12.677,9.134,15.33,-3.807,1.036,0.465
-11.933,14.071,27.376,-0.895,2.423,1.251
-8.465,12.857,33.51,2.272,2.798,2.552
-11.439,7.768,36.007,4.964,3.661,2.6
-7.384,-1.534,34.276,6.893,5.59,1.939
-7.989,-13.451,27.919,5.707,3.233,2.557
-11.434,-19.841,16.726,3.11,0.431,2.563
-12.344,-17.765,6.251,0.344,-0.369,1.618
-6.825,-11.068,3.188,-2.5,-1.984,1.993
-6.456,-3.18,0.951,-4.907,-4.147,2.559
-3.681,2.34,2.02,-5.59,-3.223,1.997
-1.249,3.155,3.584,-6.133,-2.035,1.105
-1.041,2.472,4.903,-6.576,-0.847,-0.05
-5.869,-1.567,8.42,-6.699,-0.725,-0.585
-10.651,-2.858,13.709,-6.533,-0.597,-0.224
-12.475,-0.245,19.463,-5.418,0.35,0.324
-11.634,5.17,26.398,-2.757,1.263,0.911
-9.563,6.348,31.783,0.452,1.977,2.269
-4.18,8.43,32.914,3.419,2.495,3.308
-3.473,5.654,29.09,6.186,3.758,2.506
-2.734,-6.723,25.778,7.665,4.887,1.175
-6.728,-17.249,16.403,5.807,2.148,1.506
-10.269,-18.631,8.301,3.632,0.123,1.241
-12.467,-17.437,1.744,1.318,-0.651,0.855
-9.682,-13.166,-0.947,-0.987,-1.714,1.78
-8.482,-3.431,-4.403,-2.781,-3.106,3.156
-4.386,1.717,-3.106,-2.775,-0.93,2.836
-0.465,2.587,-1.893,-3.075,0.577,2.2
2.581,2.084,-1.145,-3.39,0.857,1.247
3.17,0.766,-1.642,-3.97,0.277,-0.033
-2.097,-1.761,1.925,-5.174,0.021,-1.887
-10.435,-2.161,6.476,-5.335,-0.558,-3.245
-17.866,2.124,14.169,-5.145,-1.55,-3.274
-18.819,10.547,25.154,-3.189,0.479,-2.648
-18.566,11.251,36.174,-0.303,0.94,-0.324
-19.461,8.693,38.41,3.174,1.515,1.643
-12.177,2.047,38.965,5.484,3.358,2.584
-4.171,-7.675,30.963,6.228,3.767,2.74
-5.297,-18.748,19.852,4.508,0.812,2.513
-6.146,-20.12,9.636,1.992,-0.156,0.683
-0.979,-15.722,4.295,-0.616,-1.434,-0.274
-1.122,-9.144,0.408,-3.45,-3.692,-1.134
-9.393,-5.552,5.262,-5.166,-5.181,-2.106
-16.622,-1.269,8.361,-4.466,-4.347,-2.189
-20.582,0.945,11.053,-3.075,-3.255,-1.498
-21.638,0.46,12.346,-1.285,-1.733,-0.429
-21.62,-0.222,12.46,0.622,-0.493,1.497
-14.979,0.747,8.53,2.516,1.794,3.255
-6.002,-2.349,4.932,2.401,3.84,3.747
0.509,-4.721,1.816,1.198,4.711,3.353
3.316,-4.707,0.258,-0.439,3.402,2.476
2.964,-3.511,-0.726,-1.936,1.717,1.03
-1.239,-2.851,0.226,-3.317,0.559,-0.668
-6.549,0.481,3.706,-4.305,-1.471,-2.297
-13.87,6.088,10.982,-4.826,-2.377,-3.297
-14.994,17.71,19.763,-3.274,-0.15,-3.558
-14.276,20.399,29.756,-0.666,1.563,-1.706
-13.291,19.374,33.913,2.078,2.371,0.36
-11.226,13.967,35.84,4.527,4.475,1.17
-7.867,-3.149,26.861,6.079,5.818,1.732
-7.979,-19.6,16.959,4.287,2.6,2.776
-9.737,-23.164,5.745,1.489,0.096,2.313
-8.935,-19.937,-0.026,-1.071,-0.38,2.016
-5.555,-14.469,-3.705,-3.189,-1.43,2.911
-2.529,-1.11,-0.307,-4.313,-1.993,3.504
-0.961,5.119,1.804,-3.947,0.071,2.812
1.894,6.787,3.97,-3.467,2.207,1.524
3.639,5.353,4.155,-3.399,3.192,-0.118
2.065,3.647,2.961,-3.269,3.498,-2.143
-1.146,1.817,4.412,-3.374,1.103,-3.436
-7.933,0.789,5.799,-3.439,-0.116,-4.108
-12.318,0.83,7.943,-3.235,0.427,-4.409
-14.931,2.48,11.274,-2.547,-0.23,-4.381
-18.83,8.118,15.607,-1.563,-1.37,-3.171
-20.603,13.806,19.647,0.742,1.973,-1.842
-17.503,13.365,25.823,3.023,4.347,0.558
-17.212,11.734,28.413,4.741,3.103,2.969
-18.657,4.882,28.756,6.212,4.181,3.607
-13.277,-8.947,26.352,6.841,5.823,3.289
-9.134,-19.875,17.839,4.988,3.636,3.217
-7.346,-21.605,8.238,2.788,0.305,2.109
-6.708,-21.252,1.308,0.777,-0.736,1.086
-3.723,-15.389,-2.472,-1.393,-2.438,1.917
-5.229,-5.616,-3.082,-3.26,-4.245,3.477
-5.348,1.78,-0.323,-3.576,-3.202,3.967
-3.758,5.599,2.143,-3.58,-0.779,3.784
-0.51,7.573,4.223,-3.405,1.286,2.971
1.231,7.561,4.789,-3.16,2.433,1.764
1.299,6.352,3.591,-3.067,3.191,0.178
0.712,6.171,3.265,-3.155,3.467,-1.842
-2.049,6.107,2.227,-3.148,2.746,-3.816
-7.843,6.801,4.901,-3.278,2.131,-5.181
-12.557,10.133,11.379,-2.224,1.888,-5.665
-16.857,13.324,19.304,0.051,2.572,-4.766
-20.456,9.59,26.786,2.527,3.146,-2.006
-24.443,0.815,33.795,4.838,3.537,1.25
-19.189,-8.963,32.515,6.49,3.142,3.655
-16.871,-17.302,24.723,6.289,1.96,5.04
-14.662,-22.109,15.558,4.847,0.54,5.032
-13.399,-20.104,6.215,2.677,-1.114,4.007
-9.32,-12.574,-1.371,0.233,-1.351,2.917
-9.722,-4.353,-2.364,-1.565,-0.26,2.287
-6.919,0.599,-0.341,-2.561,1.129,1.801
-4.308,2.117,0.977,-3.42,1.94,1.176
-2.089,2.591,2.418,-3.885,2.916,0.051
-1.503,2.165,4.475,-4.263,2.589,-1.399
-3.712,1.564,4.967,-4.616,1.924,-2.679
-7.074,0.144,4.809,-5.242,1.573,-3.862
-10.437,-0.989,8.511,-5.703,1.58,-4.956
-14.429,-2.247,12.418,-5.783,0.234,-5.47
-19.934,-0.878,18.728,-4.218,1.799,-4.474
-21.194,-3.261,26.351,-1.395,2.492,-2.04
-22.449,-11.755,35.291,1.631,3.377,0.884
-21.623,-22.043,37.715,4.613,3.53,3.983
-14.802,-28.891,34.178,6.845,4.743,6.03
-8.143,-34.442,25.042,6.609,3.06,6.367
-6.066,-34.04,14.546,4.536,1.607,5.183
-4.637,-25.726,4.753,2.032,-0.087,3.897
-2.75,-14.386,-0.447,-0.734,-0.831,2.671
-5.697,-4.868,0.253,-3.02,-1.136,2.196
-5.667,0.737,1.491,-4.171,-0.274,1.714
-5.398,3.542,3.102,-4.819,1.25,1.102
-3.679,4.014,3.951,-4.986,1.898,0.149
-6.026,4.22,5.313,-5.124,1.71,-0.782
-8.212,4.334,6.738,-5.158,2.38,-2.132
-11.386,5.614,11.321,-4.966,2.563,-3.156
-14.917,8.324,18.205,-3.473,1.743,-3.187
-17.506,11.298,24.574,-0.801,2.963,-2.125
-18.198,8.638,28.807,2.102,4.012,0.023
-19.461,-3.813,31.866,4.906,4.186,1.918
-15.656,-12.657,28.802,6.128,3.343,3.564
-12.969,-19.554,21.004,5.406,2.281,4.591
-12.858,-22.815,12.746,3.418,0.266,4.536
-12.392,-19.574,6.092,1.25,-0.614,3.649
-9.055,-7.188,0.753,-0.861,-1.241,3.483
-10.019,0.264,-0.467,-1.687,-0.639,3.602
-7.232,4.066,0.477,-1.685,1.417,3.41
-2.481,5.279,2.102,-1.781,3.097,3.062
1.719,4.766,2.738,-1.789,4.008,2.089
3.089,4.111,1.858,-1.891,4.275,0.67
2.442,3.79,0.747,-2.379,3.632,-1.139
-0.565,5.169,0.739,-2.937,3.3,-3.214
-4.103,6.691,0.927,-3.377,2.924,-5.126
-10.303,9.201,6.634,-3.402,2.867,-6.349
-19.362,6.582,15.175,-2.067,2.284,-5.61
-22.342,5.594,23.071,0.476,3.084,-3.128
-24.925,-4.857,28.885,3.021,3.284,0.034
-22.463,-17.018,30.761,5.545,2.947,2.893
-16.24,-25.656,23.921,6.606,2.209,4.952
-9.671,-26.611,13.739,5.589,1.523,5.311
-9.215,-26.543,5.449,3.497,0.27,4.549
-6.93,-17.832,-1.029,1.16,-0.575,3.986
-7.674,-7.99,-2.827,-1.276,-0.125,3.757
-8.058,-1.787,-1.288,-2.548,0.899,3.591
-5.512,2.333,1.767,-2.94,2.593,3.183
-1.478,4.44,3.905,-2.972,4.205,2.194
1.731,6.349,4.543,-2.679,4.847,0.68
2.325,7.532,3.042,-2.352,4.233,-0.902
0.736,8.244,1.861,-2.252,3.282,-2.392
-0.893,8.928,1.113,-2.249,2.86,-4.015
-3.557,9.08,1.776,-2.258,2.202,-5.454
-8.463,11.985,5.647,-1.759,1.315,-5.787
-14.746,13.42,14.948,-0.242,1.799,-4.917
-18.367,9.604,23.068,2.072,2.66,-2.56
-23.47,1.989,29.232,4.354,2.36,0.688
-23.599,-9.481,29.379,6.248,2.515,3.345
-19.671,-20.831,24.123,6.443,2.702,5.004
-14.202,-26.516,13.317,5.079,1.782,5.21
-11.548,-25.021,4.471,2.816,0.41,4.089
-7.866,-19.081,-2.693,0.281,0.038,2.668
-7.05,-8.753,-4.231,-2.121,-0.228,2.227
-6.94,-0.573,-1.816,-3.325,0.74,1.725
-5.787,4.41,1.451,-3.706,1.681,1.46
-3.31,7.558,3.132,-3.517,2.878,1.158
0.472,9.145,3.507,-2.821,3.557,0.547
2.019,9.837,1.229,-1.887,3.368,-0.643
1.747,8.832,-1.471,-1.099,2.444,-1.997
0.46,7.764,-3.053,-0.806,2.199,-3.506
-0.662,7.358,-1.762,-1.007,1.834,-5.121
-5.929,9.947,2.572,-1.268,0.536,-5.467
-12.012,10.672,11.936,-0.261,1.318,-4.467
-17.365,9.253,19.275,1.505,0.461,-2.087
-25.091,0.53,24.419,3.548,0.205,0.281
-28.793,-10.462,21.977,5.797,0.951,2.952
-23.268,-21.571,17.205,6.293,2.23,4.283
-17.374,-26.957,9.123,4.722,0.434,4.448
-14.318,-26.825,2.438,2.231,0.295,3.69
-8.045,-18.791,-2.305,-0.453,-0.055,3.526
-3.964,-7.893,0.014,-2.93,-0.576,3.326
-5.179,-0.16,1.633,-3.618,-0.096,3.093
-3.828,4.417,3.051,-3.47,1.941,2.654
-0.139,6.309,3.947,-3.052,3.559,1.771
1.969,7.022,3.615,-2.467,4.298,0.302
1.646,6.275,0.959,-2.301,4.202,-1.451
0.495,6.806,0.243,-2.43,3.335,-3.306
-3.845,7.835,-0.302,-2.947,2.278,-4.812
-8.044,11.638,5.602,-3.162,2.083,-5.187
-11.192,14.055,12.636,-2.334,1.833,-4.322
-15.126,12.98,21.315,-0.126,1.29,-2.609
-19.032,7.755,27.838,2.294,1.036,-0.277
-21.149,-3.623,31.323,4.935,1.208,1.957
-19.539,-16.46,25.38,6.794,1.13,3.621
-16.659,-24.334,17.119,6.468,0.731,4.319
-13.251,-26.587,7.85,4.486,0.198,4.101
-10.461,-23.203,0.246,1.998,-0.252,3.669
-7.516,-13.721,-3.403,-0.728,-0.07,3.576
-5.904,-4.785,-1.655,-2.938,0.606,3.103
-4.509,1.337,1.036,-3.873,1.459,2.541
-2.98,5.746,3.46,-4.106,2.862,2.108
-0.2,7.332,4.551,-3.664,4.395,1.269
2.323,7.522,3.353,-3.06,4.372,-0.093
1.599,6.858,0.756,-2.879,3.58,-1.666
-0.683,6.823,-0.208,-2.887,3.075,-3.51
-3.695,7.844,-0.4,-3.157,2.561,-5.346
-6.459,10.188,4.864,-3.211,1.706,-6.573
-14.567,10.008,14.149,-2.368,1.688,-6.331
-16.408,7.055,22.574,0.045,2.507,-4.519
-18.339,0.483,29.087,2.585,2.816,-1.709
-17.698,-11.068,30.79,5.199,3.018,0.925
-14.877,-21.264,24.85,6.391,3.198,3.162
-7.927,-25.687,15.229,6.086,2.734,4.092
-7.141,-24.884,6.558,4.319,1.179,3.699
-7.444,-20.034,-0.161,2.315,0.294,3.002
-6.961,-10.52,-1.701,0.238,-0.241,2.96
-8.883,-2.706,-0.676,-1.081,-0.227,3.36
-7.388,1.137,1.307,-1.677,1.198,3.523
-3.935,2.959,2.23,-2.095,2.814,3.175
0.566,4.316,2.057,-2.228,3.882,1.996
1.582,3.85,0.882,-2.404,4.091,0.31
1.971,3.189,-0.305,-2.646,3.791,-2.018
-1.109,4.27,-0.706,-3.048,2.422,-4.022
-5.588,6.362,-0.124,-3.327,1.06,-5.34
-9.904,9.779,3.691,-3.659,0.588,-5.572
-13.45,12.028,11.575,-2.457,0.963,-5.086
-17.021,11.51,20.547,-0.195,1.696,-3.039
-19.736,5.589,27.406,2.387,2.071,-0.29
-19.01,-4.808,30.079,4.897,2.309,1.956
-16.763,-16.479,26.882,6.856,2.144,3.523
-13.738,-22.493,17.868,6.547,1.345,4.445
-11.629,-24.683,7.949,4.992,0.137,4.002
-9.896,-20.135,0.043,2.915,-0.797,3.201
-9.845,-11.429,-3.281,0.683,-0.512,3.083
-8.924,-4.08,-2.9,-1.169,0.284,3.019
-7.454,-0.607,-0.786,-2.213,1.573,2.66
-4.577,1.99,0.931,-2.81,2.64,1.908
-1.599,2.444,1.69,-3.198,3.457,0.419
-0.84,1.399,2.166,-3.774,3.064,-1.472
-3.372,1.295,3.482,-4.512,1.869,-3.328
-7.931,2.855,5.429,-5.157,0.677,-4.382
-12.18,5.665,8.153,-5.586,-0.071,-4.153
-12.527,9.85,14.669,-5.151,0.508,-3.192
-13.609,12.184,25.688,-2.763,0.781,-1.999
-13.345,9.288,34.398,0.337,2.078,-0.097
-13.326,-2.908,37.454,3.386,2.672,1.261
-11.393,-13.365,35.702,5.774,3.253,2.115
-10.855,-21.836,28.872,6.425,2.289,2.812
-9.916,-25.819,16.226,5.233,1.522,3.224
-10.085,-24.574,4.752,3.57,0.26,2.877
-7.677,-14.399,-1.579,1.887,0.085,2.709
-6.866,-7.627,-3.633,0.353,-0.623,2.364
-7.81,-3.274,-3.893,-0.33,-0.578,1.844
