ax,ay,az,gx,gy,gz
6.603,-4.165,-0.573,-0.003,-0.179,0.348
9.341,-4.574,-0.294,0.134,0.236,0.198
9.978,-5.044,-0.463,0.161,-0.251,0.121
10.494,-6.012,-0.815,0.169,-0.112,0.231
9.802,-6.878,-0.424,0.091,0.041,0.286
8.884,-7.586,-1.134,-0.184,-0.215,0.226
9.692,-9.114,-5.849,-0.766,-0.626,-0.095
5.652,-13.04,-7.858,-1.49,-1.777,-0.289
-0.546,-14.387,-10.196,-2.062,-2.251,-1.472
-5.877,-12.559,-9.301,-2.857,-4.031,-3.218
-2.484,0.014,-8.145,-1.983,-4.703,-4.43
-1.156,-1.721,1.649,-1.806,-2.579,-2.585
3.053,9.216,3.517,-1.372,-1.034,-0.854
7.106,12.723,4.154,-0.936,0.298,1.706
10.606,10.029,0.202,-0.027,2.85,3.945
6.345,-3.149,-4.878,-0.439,3.681,4.953
3.778,-2.106,-13.471,0.093,2.393,3.169
4.644,-10.17,-14.37,0.376,2.542,1.846
7.747,-11.999,-12.278,0.509,1.991,0.792
9.813,-8.376,-8.494,0.371,0.564,0.675
9.622,-5.108,-3.308,0.504,0.351,0.974
6.834,-6.595,-3.199,0.239,0.387,0.936
4.219,-10.184,-7.083,-0.312,-1.006,0.381
-4.172,-14.109,-9.28,-1.133,-2.231,-0.494
-9.78,-17.407,-9.709,-1.86,-3.061,-2.615
-12.613,-2.5,-15.472,-3.007,-4.038,-4.639
-1.266,-7.973,-6.107,-3.509,-3.689,-2.817
-2.066,3.775,-1.402,-2.918,-1.683,-0.704
5.085,8.887,-0.469,-2.104,0.576,1.368
7.435,8.029,-3.796,-1.318,2.419,3.855
9.645,-10.572,-1.477,-0.149,4.175,6.049
0.937,-2.853,-10.105,0.698,3.644,4.586
3.046,-11.737,-10.248,0.58,2.901,2.916
3.43,-13.72,-9.703,0.333,1.976,1.647
5.007,-11.903,-7.282,0.029,0.901,0.93
6.191,-7.682,-3.91,-0.423,0.006,0.429
5.265,-5.356,-0.706,-0.352,0.357,0.011
6.267,-6.543,-3.142,-0.061,1.092,-0.363
8.805,-9.683,-7.994,-0.174,0.108,-0.859
4.976,-14.076,-9.965,-0.494,-1.255,-1.162
-0.649,-18.012,-12.034,-1.065,-2.711,-2.676
-3.443,-2.077,-14.14,-2.581,-5.119,-4.288
2.867,-0.538,-3.177,-2.091,-3.925,-3.524
0.393,15.001,2.403,-1.904,-3.281,-2.004
1.401,19.811,1.739,-1.009,-0.485,-0.56
6.588,19.32,0.948,-0.113,1.652,1.532
9.129,1.579,0.727,1.428,4.043,3.519
2.018,0.699,-8.634,0.897,2.827,3.135
2.017,-13.937,-10.044,1.01,3.066,2.059
4.483,-15.271,-8.823,0.543,1.494,0.79
5.43,-13.37,-6.757,0.14,0.468,0.227
7.751,-9.682,-3.372,-0.387,0.272,0.066
9.33,-4.533,-0.42,-0.322,0.084,0.263
9.009,-1.063,1.514,0.024,0.164,0.323
6.598,-5.437,-0.395,0.137,0.749,0.296
6.382,-9.726,-5.769,0.035,0.959,-0.218
4.517,-16.018,-9.019,-0.335,-0.727,-0.448
-2.515,-21.489,-10.732,-1.383,-2.814,-1.799
-6.531,-18.683,-10.975,-3.151,-4.75,-3.673
-2.059,-3.1,-4.87,-2.211,-3.066,-4.594
1.419,12.84,1.758,-2.416,-3.639,-2.773
-2.302,19.79,1.631,-1.678,-1.607,-1.267
4.452,22.023,0.699,-0.625,1.423,0.591
8.887,17.503,-1.332,1.052,3.627,2.812
6.596,5.057,-5.284,0.523,2.546,4.141
3.446,-8.092,-8.607,1.056,3.696,3.062
8.031,-12.921,-6.972,0.707,3.124,1.93
6.859,-13.192,-5.961,0.113,1.614,1.422
5.759,-11.683,-4.393,-0.394,0.752,1.047
6.568,-7.526,-2.67,-0.618,0.262,0.588
6.817,-4.737,-0.142,-0.181,0.538,0.465
7.296,-7.158,-4.748,-0.401,-0.016,0.028
6.429,-11.112,-8.271,-0.737,-1.071,-0.422
1.286,-15.448,-9.814,-1.272,-2.093,-1.049
-5.666,-19.103,-7.833,-2.413,-3.757,-2.612
-9.331,-3.487,-12.886,-3.674,-5.518,-4.425
-4.374,-5.008,-0.849,-3.73,-3.44,-2.466
-4.579,5.238,1.943,-3.415,-2.592,-0.681
-0.479,8.298,0.779,-2.461,-0.019,1.07
5.581,8.497,-4.666,-1.222,2.174,3.353
7.647,-9.81,-2.84,-0.089,3.802,5.356
1.498,-5.608,-11.181,0.612,2.849,3.815
3.751,-12.498,-10.033,0.989,3.821,2.31
6.419,-12.092,-7.685,0.687,2.595,1.201
6.935,-10.971,-5.082,0.342,1.28,0.665
7.872,-8.615,-2.154,-0.071,0.348,0.335
9.19,-5.309,0.106,-0.275,-0.228,0.204
9.093,-3.505,0.321,-0.012,-0.329,0.137
8.273,-7.441,-2.399,-0.086,-0.392,-0.108
8.497,-11.837,-6.935,-0.501,-0.63,-0.359
2.804,-18.827,-7.701,-1.235,-2.098,-0.466
-5.558,-23.887,-7.484,-2.185,-3.824,-2.055
-12.932,-7.323,-11.304,-3.428,-6.007,-3.841
-0.737,-17.385,1.628,-3.347,-4.119,-1.966
-3.855,-4.422,5.16,-2.812,-3.177,-0.162
-0.632,1.668,3.87,-1.749,0.058,0.961
7.799,2.827,1.53,-0.742,2.441,2.878
13.922,-15.274,3.672,0.525,4.829,4.822
3.205,-2.247,-7.771,0.853,3.783,3.137
6.65,-12.879,-7.989,0.755,3.986,1.734
10.397,-13.613,-7.654,0.226,2.208,1.042
9.199,-11.901,-6.648,-0.07,0.983,0.931
9.243,-10.435,-4.953,-0.417,0.619,1.016
9.068,-8.193,-2.326,-0.638,-0.005,1.161
8.506,-3.764,-0.165,-0.409,-0.782,1.052
6.156,-2.725,1.514,0.229,-0.008,0.843
5.477,-6.448,-1.749,0.199,0.727,0.253
6.682,-10.517,-5.742,-0.228,-0.446,-0.317
2.175,-14.197,-8.366,-0.825,-2.05,-0.58
-2.881,-18.64,-10.471,-1.556,-2.507,-1.72
-6.724,-16.723,-9.503,-3.299,-4.428,-3.508
-6.444,0.665,-5.34,-2.693,-3.825,-4.449
-2.18,6.044,0.36,-3.147,-2.316,-2.447
-0.726,14.199,0.725,-2.506,-1.035,-0.644
1.958,17.51,0.448,-1.595,0.749,1.531
5.836,12.928,-0.977,0.152,3.215,3.899
5.448,-1.206,-2.64,0.092,2.785,5.318
-0.529,-6.125,-6.486,0.997,2.483,3.506
1.083,-12.812,-7.753,0.792,2.547,1.62
3.664,-14.813,-6.345,0.326,1.658,0.383
6.653,-12.146,-5.887,-0.234,0.64,-0.029
8.176,-9.708,-3.907,-0.599,0.034,0.038
8.87,-4.308,-0.89,-0.312,0.061,0.284
6.299,-6.433,0.189,-0.097,1.019,0.338
7.843,-7.239,-6.28,-0.381,0.98,-0.29
5.782,-10.956,-9.844,-0.988,-0.324,-0.832
-0.265,-15.713,-13.129,-1.797,-2.024,-1.922
-4.721,-17.174,-13.224,-2.779,-3.46,-3.817
-6.18,3.275,-13.859,-3.005,-4.344,-5.478
-0.485,-4.721,-2.801,-3.403,-3.687,-2.942
-2.268,5.772,-1.194,-2.64,-2.122,-0.865
2.229,10.81,-0.219,-1.555,0.556,1.039
6.2,8.504,-1.8,-0.577,2.322,3.651
9.085,-9.321,-1.285,-0.024,2.838,5.695
-0.006,-2.787,-7.534,0.98,2.739,3.971
1.936,-11.995,-7.893,0.93,2.788,2.223
3.44,-14.638,-7.174,0.52,1.887,1.064
4.851,-13.221,-6.176,0.096,1.042,0.269
7.124,-10.966,-3.571,-0.439,0.634,0.066
9.073,-5.389,-1.114,-0.528,0.166,0.166
8.55,-2.891,0.501,-0.211,0.249,0.186
6.834,-6.715,-3.847,-0.382,0.133,0.1
4.885,-10.195,-8.103,-0.694,-0.778,-0.126
-1.045,-14.75,-10.302,-0.972,-1.96,-0.474
-5.76,-18.489,-11.418,-1.716,-3.032,-2.038
-8.437,-8.617,-12.0,-3.125,-5.183,-3.803
-6.132,5.406,-1.908,-1.832,-3.35,-4.631
-0.761,16.102,3.223,-2.227,-2.099,-3.42
2.865,23.865,2.695,-1.894,-1.128,-1.421
6.05,26.996,1.651,-1.102,0.653,1.208
8.29,15.051,1.45,0.245,3.272,3.587
6.363,3.158,-5.895,-0.432,1.932,4.962
1.606,-6.194,-10.156,0.572,1.892,4.209
2.197,-11.513,-9.976,0.674,1.882,2.655
3.024,-13.809,-8.876,0.548,1.262,1.532
4.833,-11.885,-7.006,0.26,0.409,1.016
5.997,-7.635,-3.88,-0.064,-0.103,0.644
5.816,-4.512,-0.653,-0.034,0.268,0.235
5.691,-6.056,-2.022,0.039,0.731,-0.355
5.31,-8.17,-6.979,-0.309,0.02,-0.947
2.851,-11.317,-10.724,-0.575,-0.725,-1.399
-1.981,-15.997,-12.453,-1.102,-1.977,-2.349
-4.493,-15.345,-11.313,-2.127,-3.165,-3.988
-5.126,0.776,-12.793,-2.467,-4.808,-5.068
2.013,-8.797,-1.698,-2.095,-2.451,-2.967
5.83,2.67,1.804,-2.011,-1.93,-1.182
9.21,9.573,1.572,-1.39,-0.461,1.328
10.176,9.158,-0.486,-0.288,0.769,4.411
9.125,-6.367,2.118,0.201,2.836,6.456
-0.623,2.584,-6.361,0.41,1.454,4.996
-5.409,-6.991,-9.78,0.783,1.791,3.191
-2.439,-11.93,-8.674,0.789,1.948,1.337
1.524,-12.726,-7.343,0.373,1.344,0.174
4.749,-9.636,-4.715,0.098,0.807,-0.119
7.164,-5.377,-2.407,0.07,0.393,-0.219
6.971,-6.596,-2.475,0.116,0.185,-0.183
3.626,-8.792,-7.195,-0.293,-0.294,-0.367
0.5,-11.768,-10.242,-0.647,-1.051,-0.915
-5.029,-15.039,-12.262,-1.277,-2.331,-2.304
-7.255,-14.083,-10.938,-2.396,-3.112,-4.064
-6.913,2.478,-11.403,-2.726,-3.874,-5.173
1.271,-4.237,-2.303,-2.865,-1.917,-2.939
4.412,6.317,0.919,-2.768,-1.069,-1.108
9.828,11.527,1.205,-2.332,0.308,1.394
11.205,9.958,-1.198,-1.49,1.583,4.337
12.555,-5.356,-0.291,-1.303,3.148,6.465
3.538,1.748,-7.259,-0.668,1.432,5.123
-0.439,-6.848,-11.332,-0.183,1.301,3.713
-1.004,-10.694,-11.048,0.346,1.82,2.216
3.589,-11.097,-8.572,0.323,1.466,1.181
4.95,-8.719,-5.038,0.263,0.433,0.704
5.06,-5.644,-3.24,0.215,0.585,0.319
5.927,-5.884,-4.372,-0.009,0.574,-0.14
3.628,-7.878,-8.086,-0.707,-0.867,-0.73
-1.194,-9.581,-12.232,-0.959,-1.684,-1.728
-5.526,-11.857,-14.658,-1.56,-2.664,-3.624
-5.329,-4.091,-14.681,-2.625,-4.192,-5.39
-4.211,5.694,-8.266,-1.522,-2.479,-6.207
3.036,11.925,-2.857,-1.752,-0.388,-4.037
5.148,18.963,-0.891,-1.591,0.362,-1.455
8.323,21.602,-0.342,-0.977,1.826,1.627
7.98,11.796,-0.724,0.001,3.897,4.241
6.943,1.855,-5.261,-0.848,2.855,5.965
0.878,-3.586,-9.486,-0.196,1.677,4.623
-0.106,-9.57,-10.631,0.075,1.791,2.881
1.834,-11.5,-10.093,0.187,2.175,1.471
5.69,-9.874,-8.368,0.102,1.329,0.831
7.591,-6.986,-4.942,-0.023,0.281,0.49
7.664,-4.089,-1.171,0.234,0.141,0.378
6.47,-5.428,-1.01,0.315,0.613,0.102
6.196,-8.235,-6.297,-0.053,-0.488,-0.448
2.87,-11.719,-10.004,-0.504,-1.355,-0.967
-2.438,-16.164,-11.995,-1.091,-2.096,-1.99
-5.472,-17.005,-11.072,-2.289,-3.356,-3.752
-6.976,1.918,-14.705,-3.096,-5.41,-5.226
-0.535,-5.517,-1.883,-2.419,-3.125,-3.44
2.568,7.695,2.004,-2.016,-1.685,-2.419
6.987,13.302,2.091,-1.225,0.024,-0.217
10.476,13.819,-0.197,-0.068,2.084,2.567
13.687,-4.73,4.471,0.771,4.111,4.797
5.217,2.218,-4.034,0.705,2.9,3.769
3.442,-10.236,-7.413,0.844,2.446,3.144
3.938,-13.578,-8.038,0.554,1.925,1.772
5.524,-14.935,-7.356,0.242,0.693,0.761
6.985,-12.623,-6.112,-0.05,0.077,0.43
9.259,-7.0,-4.04,-0.369,-0.537,0.436
9.243,-3.083,-1.287,-0.135,-0.366,0.46
6.139,-6.977,-2.374,-0.123,0.008,0.572
4.051,-10.14,-7.775,-0.439,-0.133,0.245
-1.949,-15.189,-8.79,-0.937,-1.669,-0.165
-8.249,-18.896,-9.66,-1.707,-2.476,-1.824
-11.659,-12.063,-10.476,-3.724,-4.39,-3.7
-7.583,-1.535,-2.816,-2.424,-2.971,-4.568
-2.575,8.516,3.712,-2.931,-2.118,-3.327
1.208,16.172,2.591,-2.398,-0.958,-1.536
5.491,18.797,1.2,-1.398,0.614,0.869
9.262,10.052,0.775,0.482,2.985,3.013
8.207,1.953,-5.236,-0.494,1.832,4.03
4.643,-5.984,-8.513,0.615,1.717,3.262
5.773,-11.016,-8.058,0.661,2.238,2.016
6.437,-12.604,-7.32,0.374,1.093,1.322
5.554,-11.724,-6.631,0.247,0.266,0.962
6.536,-8.306,-5.235,0.072,0.036,0.716
7.915,-4.799,-2.494,0.002,0.069,0.679
7.137,-4.287,-2.798,0.12,0.395,0.542
6.262,-7.044,-8.088,-0.263,0.331,0.315
3.034,-10.961,-9.657,-0.735,-1.044,0.196
-3.364,-14.558,-10.241,-1.37,-2.015,-0.873
-10.563,-14.734,-8.058,-2.929,-3.691,-2.757
-10.358,1.375,-6.858,-3.064,-3.858,-4.022
-3.985,2.509,1.197,-3.543,-2.52,-2.311
-1.082,11.599,1.828,-3.161,-1.438,-0.483
2.882,16.059,0.582,-2.422,-0.328,1.495
8.326,12.411,-2.801,-0.864,1.891,4.002
8.327,-2.105,-4.315,-0.725,1.803,5.352
2.433,-1.397,-8.318,0.461,1.433,3.62
3.401,-8.749,-8.628,0.817,2.339,1.922
5.879,-12.202,-8.585,0.759,2.022,1.162
6.803,-10.899,-8.213,0.668,0.862,0.654
7.518,-10.601,-6.073,0.557,0.496,0.753
7.74,-8.218,-3.802,0.329,0.246,0.985
6.571,-6.066,-2.785,-0.001,0.258,1.018
4.547,-6.57,-4.894,-0.391,0.126,0.636
1.743,-9.28,-8.555,-0.932,-0.546,0.171
-4.979,-13.859,-10.055,-1.574,-1.683,-0.742
-9.647,-16.374,-8.578,-2.453,-2.674,-2.735
-13.65,0.324,-12.08,-3.357,-3.979,-4.562
-1.162,-8.431,-2.106,-2.866,-2.287,-2.856
1.152,4.737,1.737,-2.302,-1.563,-1.453
6.395,11.46,1.997,-1.489,0.391,0.43
10.759,12.659,-0.9,-0.514,1.909,3.241
15.259,-4.261,1.503,0.64,3.15,5.458
2.051,4.373,-6.079,0.771,1.932,4.255
0.856,-7.079,-7.822,1.053,2.536,3.075
1.906,-11.12,-8.605,1.005,2.015,1.683
2.861,-11.728,-7.854,0.945,1.203,0.533
4.222,-11.564,-6.235,0.777,0.953,0.084
6.809,-9.323,-4.815,0.469,0.558,-0.053
7.948,-7.017,-2.801,0.16,0.155,0.005
7.941,-5.709,-1.459,0.092,0.37,0.156
7.149,-7.468,-4.02,-0.217,0.439,0.268
5.343,-10.966,-7.291,-0.696,-0.662,0.319
-1.826,-14.961,-7.802,-1.333,-2.203,0.074
-6.682,-17.501,-7.069,-2.193,-2.902,-1.27
-10.668,-13.106,-4.623,-3.996,-4.779,-3.081
-13.25,2.424,-1.862,-3.244,-5.906,-4.854
-6.372,7.164,3.597,-3.028,-3.167,-3.43
-0.573,15.933,2.817,-2.07,-1.145,-1.545
3.319,20.047,0.571,-0.899,0.052,0.763
6.549,15.159,-2.135,1.393,2.389,3.472
8.428,2.256,-3.198,1.258,3.869,5.458
0.507,-2.711,-6.25,1.776,2.492,4.03
0.168,-9.615,-7.649,1.414,2.191,2.226
1.114,-13.331,-6.746,1.031,1.708,1.078
2.359,-13.195,-6.021,0.392,0.52,0.092
4.499,-11.948,-4.366,-0.028,0.242,-0.076
7.241,-6.149,-2.743,-0.17,0.354,-0.13
6.746,-7.846,-2.617,-0.321,0.764,-0.089
6.416,-8.819,-8.017,-0.757,0.18,-0.261
1.163,-12.939,-9.777,-1.28,-0.707,-0.358
-3.974,-16.884,-11.367,-1.908,-1.641,-1.611
-10.536,-13.721,-13.419,-3.486,-3.867,-3.372
-5.35,-0.928,-5.02,-2.472,-2.844,-3.722
-1.752,13.692,1.204,-2.046,-2.87,-2.644
-0.964,20.405,1.073,-0.976,-1.176,-1.161
3.305,21.804,1.681,0.295,1.037,0.647
9.372,14.452,2.641,2.03,3.252,2.792
4.734,2.456,-4.328,1.313,1.906,3.316
0.311,-12.19,-6.553,1.309,2.817,2.737
4.199,-15.414,-5.904,0.681,2.375,1.494
3.478,-14.654,-5.795,0.018,0.959,0.909
3.871,-11.987,-5.378,-0.204,0.786,0.406
5.309,-8.192,-3.92,-0.285,0.411,0.208
6.899,-4.099,-1.478,-0.158,0.231,-0.038
7.226,-2.884,-0.324,0.193,0.782,-0.218
7.996,-6.523,-3.445,-0.076,0.801,-0.395
6.73,-11.009,-7.731,-0.642,-0.509,-0.291
-1.653,-16.563,-9.038,-1.316,-2.13,-0.685
-6.909,-20.551,-7.25,-2.171,-3.053,-2.397
-10.207,-3.93,-8.477,-3.646,-5.313,-4.083
-9.82,-5.468,-1.101,-2.299,-3.507,-3.745
-6.514,8.55,3.647,-1.766,-1.993,-3.177
-0.217,15.55,2.811,-0.862,0.58,-1.457
5.068,18.593,-0.798,0.196,2.259,1.547
7.587,2.062,-0.627,1.799,4.169,3.93
5.512,6.318,-5.46,1.282,3.0,4.207
2.256,-5.654,-7.038,1.701,2.887,3.797
2.643,-10.202,-7.121,1.57,2.098,2.521
1.449,-12.109,-6.614,1.272,1.127,1.164
0.994,-12.448,-5.823,0.846,0.439,0.16
1.49,-9.19,-5.125,0.304,0.178,-1.014
7.204,-4.194,-2.598,-0.055,1.203,-1.162
10.355,-1.673,0.069,-0.121,1.023,-0.997
11.346,-1.22,0.465,-0.165,1.343,-0.625
11.617,-6.495,-3.302,-0.933,1.377,0.025
8.975,-12.794,-5.686,-1.612,-0.686,1.067
-2.962,-17.601,-8.74,-2.206,-2.344,0.235
-10.703,-17.775,-6.647,-3.541,-3.851,-1.684
-10.756,-0.145,-8.073,-3.67,-4.087,-3.361
-3.691,1.825,-0.509,-3.72,-2.983,-1.899
-1.932,11.993,1.161,-3.057,-1.116,-0.499
4.626,15.109,1.407,-2.564,-0.213,1.303
10.164,13.745,-2.789,-1.28,1.758,3.784
8.709,-3.267,-2.964,-0.873,2.099,5.426
1.587,-1.193,-8.554,0.462,2.018,3.671
3.014,-9.03,-8.87,0.912,2.107,1.849
3.857,-11.846,-8.433,1.116,1.237,0.838
3.549,-10.897,-7.663,1.114,0.313,-0.076
4.238,-9.393,-5.598,0.981,0.528,-0.643
7.64,-6.937,-2.416,0.593,0.894,-0.772
10.227,-5.709,-1.617,0.002,1.434,-0.749
10.951,-8.819,-5.454,-0.878,1.039,-0.516
10.038,-12.195,-8.194,-1.425,0.196,-0.004
3.48,-17.773,-8.243,-2.197,-1.777,0.012
-6.09,-20.44,-6.779,-3.049,-4.111,-1.597
-14.833,-2.528,-8.959,-3.538,-4.722,-3.29
-9.965,-8.72,-1.494,-3.418,-3.555,-1.747
-10.282,3.103,0.281,-2.771,-2.345,-0.416
-5.356,8.574,-1.782,-1.727,-0.051,0.697
1.423,7.037,-4.758,-0.637,2.135,3.084
7.26,-10.726,-3.63,0.291,2.31,5.08
0.602,-1.687,-8.438,0.956,1.942,3.257
1.478,-12.488,-9.082,0.845,1.793,1.604
2.035,-14.069,-7.877,0.562,0.858,0.574
1.915,-10.141,-7.477,0.428,0.413,-0.493
7.735,-5.617,-4.363,0.18,1.29,-0.709
9.743,-2.669,-1.924,0.285,1.193,-0.151
9.359,-2.368,-1.039,0.219,1.613,0.089
9.319,-6.058,-5.869,-0.521,1.366,0.345
6.803,-10.364,-8.116,-1.226,-0.049,0.774
-4.007,-17.571,-10.284,-1.732,-1.922,0.362
-11.391,-21.86,-7.931,-2.844,-3.761,-1.866
-15.397,-2.908,-10.239,-4.018,-5.307,-3.862
-2.097,-13.402,2.374,-3.328,-3.167,-2.141
-1.158,-1.43,3.871,-2.497,-1.972,-0.726
2.849,3.569,2.905,-1.702,-0.544,0.66
8.413,6.182,-1.142,-0.552,1.955,3.219
12.945,-11.064,0.04,0.843,3.553,5.21
0.022,1.156,-8.913,1.056,2.212,3.697
1.893,-8.333,-9.822,1.083,2.13,2.409
3.618,-10.116,-8.698,1.08,1.326,1.498
3.964,-9.68,-7.614,1.015,0.488,0.757
4.11,-8.471,-5.491,0.984,0.464,0.495
4.73,-5.863,-3.188,0.868,0.584,0.154
5.289,-5.8,-1.917,0.473,1.299,-0.258
5.436,-8.457,-5.065,-0.528,1.906,-0.665
7.355,-12.428,-9.266,-1.363,0.893,-0.901
2.782,-16.666,-11.075,-2.108,-0.965,-0.783
-2.42,-19.709,-11.06,-2.618,-2.569,-1.778
-7.605,-12.762,-10.02,-3.73,-4.262,-3.243
-4.648,-0.98,-1.245,-1.942,-3.063,-3.441
-2.464,17.386,3.654,-1.684,-2.084,-2.717
0.486,22.602,3.079,-1.033,-0.333,-1.521
6.27,25.69,1.627,-0.353,1.734,0.605
11.552,19.576,-0.064,0.979,2.954,2.749
8.064,10.053,-6.585,0.263,1.614,3.508
3.979,-5.414,-8.846,0.978,1.825,3.026
4.742,-11.118,-7.652,1.151,1.839,1.813
4.559,-14.422,-9.305,0.934,0.8,0.816
2.222,-16.133,-7.962,0.709,0.037,0.171
1.206,-14.27,-6.382,-0.051,-0.738,-0.669
2.687,-9.94,-5.418,-0.557,-0.51,-1.336
7.331,-2.437,-2.9,-0.598,-0.36,-0.851
8.303,2.439,0.049,-0.615,-0.175,-0.152
9.638,5.288,-0.079,-0.308,0.651,0.821
6.414,-2.601,-3.056,-0.307,0.529,1.898
-0.132,-9.219,-9.316,-0.623,-0.656,1.941
-8.693,-18.926,-10.394,-1.123,-1.158,0.916
-15.892,-24.95,-8.676,-1.977,-2.692,-1.297
-18.925,-9.239,-11.346,-3.165,-4.584,-3.768
-4.891,-16.966,-1.174,-2.766,-2.348,-2.511
-2.241,-4.704,4.613,-2.286,-1.628,-0.364
-0.343,2.161,2.574,-1.725,-0.221,1.258
5.916,5.091,-0.515,-0.743,2.105,3.125
9.691,-11.761,-0.168,0.299,3.966,4.945
-0.127,1.304,-9.366,0.664,2.649,3.028
3.688,-8.892,-9.038,1.079,3.371,1.308
8.526,-11.872,-7.854,1.002,2.278,0.236
9.189,-13.303,-8.444,0.787,0.697,0.202
7.244,-15.177,-7.653,0.641,-0.435,0.43
5.942,-14.108,-5.988,0.178,-1.176,0.541
4.355,-11.243,-5.47,-0.505,-2.162,0.19
5.415,-3.475,-4.506,-0.636,-1.872,0.072
5.631,0.968,-2.447,-0.285,-1.046,0.277
7.007,4.624,-0.914,0.075,0.086,0.514
5.885,-0.443,-1.9,0.206,0.637,1.043
-0.643,-7.169,-8.782,-0.094,0.63,1.754
-11.768,-17.466,-9.254,-0.623,-0.455,1.513
-17.931,-22.856,-6.794,-1.644,-1.354,-0.457
-21.511,-7.787,-6.936,-3.363,-3.381,-2.742
-11.698,-11.795,0.516,-2.744,-1.874,-1.836
-4.915,5.082,6.648,-2.122,-1.111,-0.895
1.021,10.884,4.799,-1.304,0.705,0.193
6.902,11.478,1.252,-0.401,2.366,2.074
10.759,-6.228,-0.834,1.221,4.67,4.048
4.397,1.198,-8.881,0.799,3.358,2.761
5.35,-13.508,-9.329,0.91,2.896,1.875
7.547,-15.418,-8.345,0.672,1.309,1.264
5.831,-13.168,-7.815,0.595,-0.149,0.866
4.821,-11.509,-5.81,0.547,-0.648,0.391
6.726,-7.13,-3.203,0.42,-0.15,0.34
7.247,-3.309,-1.471,0.238,-0.167,0.224
5.663,-5.295,-1.932,-0.155,0.07,0.235
2.805,-8.533,-6.808,-0.871,-0.016,0.289
-2.768,-13.98,-7.792,-1.408,-0.722,0.431
-10.471,-20.142,-6.519,-2.193,-2.469,-0.683
-16.667,-16.36,-6.058,-3.802,-3.404,-2.607
-13.463,-5.776,0.582,-2.469,-1.413,-3.166
-2.471,11.289,5.72,-2.291,-1.346,-2.65
0.701,18.837,4.68,-1.51,-0.742,-1.466
6.342,22.432,2.277,-0.317,1.446,0.667
11.504,16.931,1.455,1.502,2.866,2.813
9.753,5.765,-5.199,0.683,1.412,3.342
1.072,-10.213,-7.609,1.09,1.999,3.017
3.946,-14.802,-6.217,0.692,1.841,2.226
3.235,-14.955,-5.92,0.233,0.514,1.273
3.727,-13.821,-4.961,0.018,0.058,0.95
4.353,-8.542,-2.903,-0.247,-0.148,0.795
5.574,-4.114,-0.223,-0.118,0.227,0.42
5.35,-4.467,-0.833,0.124,0.724,-0.069
4.094,-8.287,-5.318,-0.288,0.121,-0.519
1.108,-12.143,-8.46,-0.727,-0.364,-0.724
-2.991,-16.944,-9.27,-1.258,-1.151,-1.1
-6.033,-19.452,-9.316,-2.119,-2.108,-2.297
-8.861,-13.524,-7.842,-3.859,-4.151,-3.843
-9.766,1.525,-2.045,-2.524,-1.848,-4.63
-2.246,14.089,0.889,-2.77,-0.59,-3.205
0.906,21.726,-0.09,-2.082,-0.182,-1.121
2.534,23.791,-1.562,-0.885,1.027,1.462
4.948,17.877,-2.831,1.122,3.348,3.66
5.746,4.881,-5.762,0.497,1.963,4.924
-1.79,-6.875,-7.882,1.387,1.386,3.564
-1.009,-13.45,-7.93,1.278,1.867,1.716
1.256,-15.672,-6.775,0.785,1.233,0.335
2.801,-13.764,-5.449,0.249,0.309,-0.255
5.198,-10.245,-3.481,-0.133,0.066,-0.422
8.933,-5.411,-1.094,-0.229,0.355,-0.224
8.964,-2.251,0.331,-0.025,0.296,0.042
6.844,-5.328,-1.749,-0.021,0.325,-0.025
4.974,-8.616,-7.549,-0.377,0.173,-0.147
2.669,-13.319,-10.097,-0.698,-0.544,-0.293
-3.867,-19.682,-10.325,-1.474,-2.099,-1.044
-9.681,-23.062,-6.964,-2.822,-3.738,-2.954
-14.129,-2.034,-9.469,-3.763,-5.313,-4.574
-2.987,-11.422,1.998,-3.621,-3.065,-2.567
-3.385,0.154,2.689,-3.044,-2.269,-1.133
0.691,6.582,0.574,-1.944,-0.076,0.602
6.774,9.184,-4.018,-0.384,2.396,3.314
12.85,-8.522,-1.198,0.979,4.49,5.545
1.99,0.994,-8.35,1.689,3.182,4.093
3.198,-10.239,-9.105,1.542,3.055,3.125
3.143,-13.952,-8.137,1.09,1.704,2.156
1.537,-14.671,-6.941,0.695,0.412,1.063
0.718,-12.81,-4.393,0.41,-0.1,0.193
4.287,-6.263,-1.005,0.059,0.235,-0.375
6.425,-2.153,1.956,0.081,0.431,-0.598
7.581,-2.973,1.503,0.077,1.125,-0.854
9.448,-6.846,-4.697,-0.587,0.887,-0.82
9.752,-11.488,-8.042,-1.149,0.137,-0.272
4.716,-18.599,-10.459,-1.656,-1.507,0.275
-4.462,-22.943,-9.922,-2.399,-3.417,-0.736
-9.531,-17.512,-7.077,-3.672,-4.463,-2.375
-8.028,-1.037,1.809,-2.253,-2.312,-2.781
-3.927,12.868,4.668,-2.859,-1.346,-2.027
-3.862,19.534,3.096,-2.536,-1.016,-0.553
3.746,24.17,0.452,-1.788,1.823,1.033
9.733,19.677,-2.238,-0.306,3.104,2.971
8.333,7.901,-6.18,-0.696,2.32,3.468
6.39,-4.368,-6.907,0.869,2.515,2.476
10.453,-10.054,-6.689,1.075,3.291,0.695
12.774,-12.892,-5.716,0.968,2.136,0.43
12.939,-11.582,-4.339,0.824,1.259,0.733
12.038,-11.462,-2.709,0.436,0.236,1.301
9.231,-8.104,-1.354,-0.082,-0.306,1.571
6.667,-4.679,0.553,-0.303,-0.288,1.521
3.568,-5.112,-1.609,-0.602,-0.066,0.765
3.472,-8.71,-5.773,-0.933,-0.189,-0.009
3.615,-12.605,-8.588,-1.304,-0.414,-0.388
0.093,-17.261,-9.875,-1.886,-2.043,-1.045
-5.902,-17.807,-7.347,-2.746,-3.242,-2.707
-8.87,0.907,-9.147,-2.901,-4.623,-3.714
-2.817,-0.412,-1.127,-2.625,-2.472,-1.689
-4.704,8.9,0.402,-2.155,-2.338,-1.158
-0.998,14.084,-0.21,-1.114,0.461,0.429
6.583,12.601,-3.342,0.285,2.19,2.83
10.014,-5.469,-0.35,1.053,3.671,4.464
1.352,-4.221,-6.809,1.267,1.981,2.815
2.944,-12.631,-7.696,1.251,2.523,2.239
4.46,-15.13,-6.912,0.869,1.383,1.183
4.064,-13.35,-5.973,0.47,0.599,0.65
4.572,-10.617,-3.972,0.222,0.429,0.388
5.52,-5.718,-1.074,0.126,0.461,0.155
5.335,-4.003,0.06,-0.104,0.892,-0.366
7.225,-6.011,-3.457,-0.449,1.439,-0.936
9.169,-9.242,-7.718,-0.779,0.716,-1.107
8.527,-13.664,-10.164,-1.122,-0.238,-0.853
4.707,-18.173,-11.237,-1.697,-1.997,-1.208
-2.532,-18.233,-7.524,-2.377,-3.253,-2.576
-7.018,1.237,-10.472,-2.468,-5.516,-3.823
-2.934,-8.954,-1.851,-2.397,-3.046,-2.027
-2.638,1.086,-0.709,-2.1,-1.975,-1.159
-0.065,7.518,-1.453,-1.38,0.418,0.355
8.196,9.669,-5.073,-0.255,1.99,3.168
10.267,-7.656,0.805,0.621,4.259,5.429
2.989,3.062,-4.946,1.556,3.111,3.669
2.225,-7.846,-7.288,1.536,2.954,2.318
3.901,-12.885,-7.141,1.207,1.823,0.973
2.269,-14.543,-6.754,0.659,0.524,-0.691
6.708,-12.663,-4.113,0.106,1.584,-1.409
11.186,-8.858,-2.001,-0.593,0.623,-1.011
12.237,-4.747,-0.197,-0.637,0.506,0.102
10.081,-5.459,-3.549,-0.874,-0.205,1.145
6.072,-7.763,-5.735,-0.935,-1.04,1.91
-3.935,-12.461,-7.222,-1.267,-2.751,1.659
-11.214,-15.73,-6.664,-2.079,-3.204,-0.259
-12.731,0.786,-6.233,-3.099,-4.986,-2.866
-12.634,11.942,-1.001,-1.853,-2.121,-4.964
-0.382,21.332,2.822,-2.205,-0.221,-3.887
4.323,30.363,1.884,-1.983,-0.361,-1.744
7.534,35.028,-0.378,-1.122,1.052,1.093
7.848,17.53,-0.634,0.295,3.497,3.553
8.307,6.535,-2.622,-0.136,2.327,4.914
-0.783,-4.506,-8.061,0.501,1.564,3.272
0.575,-11.342,-9.909,0.756,2.201,1.1
3.325,-15.243,-9.034,0.666,1.13,-0.482
6.433,-13.637,-7.532,0.355,0.84,-1.093
11.104,-9.643,-5.313,-0.021,0.235,-0.628
13.334,-3.45,-0.692,0.164,-0.105,0.168
11.807,-2.255,1.088,0.322,-0.138,1.023
8.144,-4.056,-4.57,-0.16,-0.264,1.29
2.107,-8.895,-7.56,-0.789,-2.039,1.034
-6.715,-13.617,-9.398,-1.399,-2.283,-0.222
-8.692,-16.538,-9.026,-2.416,-2.988,-2.368
-12.487,0.213,-13.178,-3.529,-5.033,-4.486
0.15,-11.429,-0.023,-2.962,-2.687,-2.878
3.428,0.479,3.083,-2.469,-1.552,-1.776
8.153,7.68,2.766,-1.798,-0.287,0.555
9.566,9.044,0.216,-0.773,1.298,3.468
12.318,-8.912,3.149,0.484,3.324,5.628
-0.95,3.494,-6.793,1.02,2.119,3.734
-0.53,-7.239,-10.664,1.257,2.694,2.471
1.806,-12.743,-10.087,1.164,1.819,0.748
3.623,-13.62,-8.39,0.947,0.865,-0.42
6.137,-11.176,-6.015,0.61,0.574,-0.747
9.07,-3.695,-2.549,0.247,-0.051,-0.816
9.057,0.049,1.564,0.279,0.371,-0.725
10.584,-2.235,-1.102,-0.264,0.902,-1.289
14.359,-5.687,-5.263,-0.579,0.847,-1.295
14.031,-9.201,-7.984,-0.853,-0.344,-0.786
11.763,-16.68,-10.002,-1.213,-1.185,0.09
6.574,-19.733,-10.442,-1.839,-3.698,-0.112
-0.595,-14.512,-6.943,-2.054,-4.693,-1.096
-4.015,6.124,-6.888,-2.308,-5.178,-2.836
-4.217,-3.431,-2.912,-1.637,-2.265,-2.543
3.977,9.388,-0.334,-1.831,-0.29,-1.934
9.271,16.56,-1.925,-1.546,1.356,-0.337
13.2,17.088,-3.502,-0.727,2.267,2.759
10.032,-1.027,-0.668,0.317,3.538,5.273
7.013,7.998,-3.345,0.44,1.265,4.478
-3.55,-4.386,-7.423,0.99,0.423,2.862
-2.4,-10.711,-6.984,1.206,1.076,1.152
-0.265,-13.236,-6.155,0.822,0.165,-0.286
0.947,-11.698,-5.914,0.28,0.23,-0.975
3.814,-9.097,-6.431,-0.207,1.084,-1.071
7.097,-8.276,-7.215,-0.504,0.732,-0.659
5.666,-9.461,-9.703,-0.807,-0.215,-0.163
1.284,-11.762,-10.939,-0.898,-0.95,-0.143
-3.561,-14.343,-11.213,-1.327,-1.942,-1.15
-6.848,-13.214,-7.94,-2.415,-3.161,-2.893
-9.207,1.438,-5.728,-2.612,-3.08,-3.989
-2.764,-2.209,-1.457,-3.114,-1.181,-2.199
0.336,8.216,-0.044,-2.734,-0.751,-0.385
3.156,14.062,-0.329,-1.711,-0.085,1.679
3.404,10.182,-2.189,-0.052,1.575,4.538
4.39,-5.205,-2.746,0.772,2.324,5.886
-4.141,-2.18,-6.842,1.619,0.769,4.073
-6.695,-11.52,-7.947,1.541,1.247,2.009
-4.563,-15.633,-6.488,0.997,1.462,0.469
0.297,-12.144,-5.547,0.318,1.288,-0.847
5.797,-8.113,-2.89,-0.166,0.81,-0.857
8.752,-3.766,0.631,-0.136,0.611,-0.629
9.538,-3.591,0.798,0.05,0.874,-0.189
7.434,-5.671,-4.75,-0.376,0.127,0.08
3.145,-9.27,-7.711,-0.744,-1.169,0.141
-3.068,-13.878,-10.259,-1.041,-1.479,-0.2
-6.384,-17.267,-10.883,-1.816,-2.032,-1.296
-8.165,-14.362,-8.48,-3.073,-3.008,-3.164
-6.874,2.062,-8.535,-3.05,-4.236,-4.36
-1.209,-7.522,-1.282,-2.635,-1.788,-2.471
4.054,3.918,-0.121,-2.61,-2.019,-0.795
5.867,9.381,-1.309,-1.693,-1.098,1.382
7.156,7.578,-3.725,-0.04,0.508,4.171
6.686,-8.452,0.44,0.946,2.884,5.907
0.494,0.805,-6.483,1.407,1.169,4.248
-3.359,-10.484,-8.763,1.688,1.51,2.65
-2.887,-14.86,-8.198,1.358,1.25,1.074
0.111,-14.258,-6.813,0.856,0.859,-0.28
4.588,-10.226,-4.623,0.291,0.51,-0.582
8.925,-5.419,-2.289,-0.136,0.371,-0.42
9.625,-2.662,-0.444,-0.041,0.531,-0.102
8.143,-5.833,-2.779,-0.119,0.549,0.288
4.363,-9.606,-6.961,-0.493,-0.554,0.503
-4.346,-15.305,-8.367,-0.896,-1.742,0.108
-8.933,-19.552,-8.25,-1.657,-1.991,-1.383
-10.811,-14.612,-7.637,-3.542,-3.906,-3.341
-11.376,0.344,-4.579,-2.745,-2.443,-4.749
-3.879,7.537,0.229,-3.248,-1.424,-3.261
0.253,16.678,-0.453,-2.675,-0.654,-1.225
3.36,21.613,-2.062,-1.663,0.497,1.267
5.239,15.021,-2.812,0.558,2.789,3.813
6.896,2.785,-4.562,0.41,1.706,5.349
-0.492,-5.054,-7.336,1.504,1.706,4.054
0.127,-11.935,-8.014,1.327,1.658,2.298
0.527,-14.861,-7.039,1.002,0.716,0.852
3.435,-13.827,-5.761,0.459,0.611,0.227
6.047,-11.188,-3.244,-0.11,0.286,0.433
7.534,-5.438,-1.194,-0.347,-0.267,0.471
5.788,-3.789,0.284,-0.158,0.24,0.381
4.687,-5.532,-2.598,-0.269,0.883,0.042
3.126,-8.588,-6.789,-0.593,0.242,-0.542
0.716,-12.755,-10.104,-0.963,-0.282,-0.982
-2.188,-17.677,-10.655,-1.337,-0.969,-1.459
-4.949,-18.384,-9.483,-2.097,-2.145,-2.936
-7.176,0.929,-8.542,-2.422,-4.098,-4.147
-2.476,5.821,1.052,-1.375,-2.151,-3.266
2.531,21.992,4.699,-1.275,-2.422,-2.055
4.69,29.865,4.154,-0.817,-1.098,-0.349
9.054,30.005,2.607,0.126,0.543,2.201
11.777,11.334,3.617,0.92,2.575,4.041
5.017,5.604,-4.495,0.395,0.816,3.419
1.291,-9.422,-8.086,0.695,1.984,2.174
5.745,-14.762,-6.965,0.525,1.58,0.886
8.225,-14.04,-5.752,0.12,0.846,0.522
9.037,-10.988,-4.198,-0.262,-0.086,0.948
7.203,-6.233,-2.204,-0.449,-0.439,1.278
4.004,-4.356,-1.253,-0.417,0.048,0.95
2.547,-4.171,-3.587,-0.274,0.545,0.231
3.144,-6.236,-5.677,-0.368,0.487,-0.483
3.629,-9.568,-8.786,-0.605,0.491,-0.693
3.938,-12.904,-9.952,-0.849,-0.464,-0.526
0.53,-14.766,-8.849,-1.154,-1.896,-0.856
-5.379,-13.816,-4.635,-1.959,-2.958,-1.957
-9.652,4.967,-6.422,-2.516,-3.609,-3.598
-0.801,-5.994,-0.616,-2.196,-1.51,-2.638
3.707,5.268,0.476,-2.112,-0.705,-1.871
8.256,10.296,0.209,-1.642,0.298,0.08
12.279,9.793,-2.637,-0.501,1.917,2.727
13.987,-8.489,-0.364,0.628,3.06,4.661
3.526,0.443,-5.131,1.071,1.738,3.452
2.138,-10.956,-7.561,1.345,2.273,2.399
5.012,-15.495,-6.928,1.179,1.796,1.292
6.272,-15.474,-5.785,0.706,0.643,0.651
7.148,-13.106,-3.911,0.259,0.379,0.732
7.661,-7.548,-1.863,-0.286,-0.047,0.793
6.24,-4.59,0.402,-0.406,0.174,0.694
4.66,-5.168,-2.331,-0.639,0.385,0.299
3.378,-7.197,-6.372,-0.837,0.262,-0.277
3.206,-10.804,-9.612,-1.011,0.084,-0.561
2.314,-14.463,-11.562,-1.219,-0.994,-0.586
-3.288,-16.97,-11.387,-1.64,-2.68,-1.346
-7.019,-14.012,-6.535,-2.028,-2.876,-2.799
-7.653,4.033,-5.278,-2.222,-3.065,-4.231
1.13,-5.823,-0.044,-2.306,-1.381,-2.576
2.944,4.72,1.365,-2.251,-1.082,-1.588
8.112,9.82,-0.076,-1.565,0.967,0.389
12.267,7.106,-2.975,-0.5,2.136,2.932
13.232,-9.58,-2.015,0.464,3.114,4.927
2.869,-1.027,-6.909,1.006,1.512,3.465
2.484,-11.213,-9.178,1.234,2.465,2.593
4.806,-15.496,-7.398,0.973,1.634,1.541
5.656,-14.122,-5.961,0.46,0.584,1.117
6.103,-12.187,-3.868,-0.124,0.099,1.191
6.686,-6.559,-1.269,-0.354,-0.012,1.109
4.603,-4.564,0.096,-0.326,0.053,0.769
3.286,-5.264,-3.792,-0.387,0.341,0.134
2.126,-8.385,-7.631,-0.578,0.019,-0.546
1.056,-11.905,-10.444,-0.748,-0.621,-0.996
-2.696,-16.302,-10.658,-1.314,-1.984,-1.836
-6.286,-16.584,-6.544,-2.442,-2.945,-3.456
-12.676,2.197,-7.822,-2.819,-4.491,-4.693
-1.067,-6.16,-1.449,-3.158,-2.707,-2.64
-2.328,3.288,-0.14,-2.665,-2.256,-1.342
0.292,8.945,-1.416,-1.709,-0.119,0.444
5.722,9.063,-5.377,-0.21,1.369,3.06
12.317,-8.783,-1.284,0.549,3.187,5.023
0.282,1.323,-5.447,1.654,2.066,3.185
2.344,-8.451,-5.629,1.847,2.748,1.874
4.743,-13.692,-5.361,1.455,2.099,0.952
5.594,-14.753,-4.667,0.873,1.212,0.283
6.682,-13.732,-3.743,0.454,0.96,0.346
7.762,-11.417,-2.648,-0.134,0.611,0.659
7.588,-7.221,-1.723,-0.571,0.148,0.901
6.565,-4.268,-1.604,-0.445,0.318,0.761
5.931,-4.995,-4.066,-0.268,0.416,0.371
4.028,-8.312,-8.047,-0.435,-0.65,-0.089
-0.134,-12.621,-10.003,-0.65,-1.591,-0.508
-3.456,-16.68,-10.336,-1.125,-2.424,-1.589
-5.936,-15.4,-8.651,-2.443,-3.986,-3.313
-8.109,-0.757,-5.611,-2.545,-3.051,-4.054
-1.965,0.477,-1.278,-2.971,-1.519,-2.206
1.392,10.143,0.325,-2.678,-1.401,-0.286
3.08,15.067,-0.574,-1.972,0.282,1.997
4.729,11.106,-2.216,-0.449,2.702,4.5
5.921,-4.092,-4.198,-0.16,2.282,5.858
-0.635,-4.62,-6.911,0.569,1.248,4.434
-1.811,-11.729,-8.121,0.55,1.955,2.662
0.449,-14.764,-7.013,0.303,1.218,1.39
1.786,-13.321,-6.559,-0.071,-0.021,0.628
3.346,-10.565,-5.02,-0.201,-0.648,0.097
5.61,-6.672,-2.245,-0.09,-0.167,-0.205
7.08,-4.741,-0.626,0.125,0.268,-0.293
5.829,-7.703,-2.694,0.053,0.191,-0.574
4.664,-10.47,-7.027,-0.364,-0.414,-0.715
1.585,-13.653,-9.483,-0.798,-1.013,-0.636
-3.366,-17.622,-10.094,-1.32,-1.613,-1.245
-8.895,-19.187,-7.229,-2.45,-2.758,-2.855
-7.979,1.488,-9.528,-3.211,-4.577,-4.352
-9.95,-4.364,-0.82,-1.934,-2.172,-3.712
-2.561,8.606,1.474,-1.777,-1.137,-2.732
1.483,15.473,0.096,-1.25,-0.306,-0.803
7.271,16.313,-4.24,-0.008,1.142,2.271
6.183,-2.191,-1.175,1.196,3.174,4.801
6.678,4.397,-7.25,0.844,1.406,4.725
-1.532,-7.301,-9.429,1.312,1.375,3.97
-1.93,-12.53,-8.765,1.284,1.079,2.647
-1.286,-13.286,-7.388,0.911,0.411,1.334
0.54,-11.066,-5.658,0.458,0.189,0.566
3.11,-7.176,-3.537,-0.006,0.358,0.009
5.056,-5.843,-2.339,-0.099,0.48,-0.586
4.118,-9.048,-5.236,-0.378,0.438,-0.944
1.814,-12.261,-8.293,-0.727,-0.157,-1.208
-3.167,-16.049,-9.512,-1.093,-1.095,-1.672
-6.158,-17.405,-10.631,-1.594,-1.223,-2.923
-5.095,-9.489,-8.918,-2.371,-2.233,-4.274
-1.533,2.287,-2.716,-1.053,-3.081,-4.975
-0.577,6.419,-0.614,-1.062,-1.435,-3.213
6.94,15.016,1.957,-0.928,0.806,-1.018
11.878,18.229,1.879,-0.751,0.439,1.622
9.593,10.566,0.006,0.004,0.74,4.352
5.466,1.699,-3.948,-0.715,2.344,5.965
3.064,-1.349,-4.377,0.032,1.546,4.684
-1.599,-7.639,-7.729,0.423,0.313,2.807
-2.595,-11.794,-7.47,0.765,1.07,1.493
0.423,-12.008,-6.877,0.481,1.112,0.574
2.118,-9.961,-6.311,0.193,0.469,-0.086
4.472,-7.035,-5.961,0.151,0.403,-0.698
5.559,-7.099,-5.822,0.318,0.54,-0.989
6.123,-7.413,-5.928,0.297,0.193,-1.267
6.136,-8.923,-5.984,0.143,0.262,-1.364
6.783,-11.668,-7.536,-0.463,-0.372,-0.982
2.932,-14.523,-7.656,-1.249,-2.181,-0.305
-2.65,-15.637,-6.436,-1.788,-2.639,-0.591
-9.372,-13.513,-3.461,-2.638,-3.448,-1.993
-12.079,5.016,-6.741,-2.886,-3.657,-3.562
-7.368,-1.649,-3.651,-3.109,-1.768,-2.029
-2.31,6.923,-2.867,-2.716,-0.511,-0.698
2.665,12.423,-3.722,-2.23,-0.081,0.884
6.685,9.944,-6.634,-1.173,1.261,3.649
8.201,-7.844,-4.055,-0.309,2.245,5.749
2.424,-0.417,-6.461,0.802,1.148,4.201
0.281,-8.241,-7.366,1.28,1.455,2.595
0.099,-13.093,-7.001,1.324,1.224,1.574
1.457,-12.227,-6.591,1.199,0.937,0.328
3.277,-11.416,-5.179,0.816,0.617,-0.337
5.466,-9.387,-3.35,0.323,0.651,-0.506
7.068,-7.411,-2.44,-0.134,1.13,-0.485
7.329,-6.609,-3.518,-0.628,1.184,-0.422
6.34,-8.01,-6.43,-0.999,0.47,-0.615
4.632,-10.641,-9.294,-1.176,0.134,-0.736
2.902,-14.278,-10.839,-1.364,-1.098,-0.843
-3.215,-16.822,-10.314,-1.721,-2.957,-1.86
-4.555,-10.054,-10.099,-1.993,-4.383,-3.523
-5.202,3.154,-7.734,-1.593,-2.494,-4.259
2.061,10.203,-3.887,-1.838,-1.606,-2.396
2.096,18.714,-3.164,-1.672,-1.126,-0.868
7.365,23.381,-4.101,-1.258,1.1,1.478
8.681,16.296,-2.918,-0.641,3.107,4.069
8.897,3.71,-3.153,-0.628,1.915,5.672
-0.424,-2.293,-6.458,0.036,0.759,4.19
-2.367,-9.468,-7.754,0.325,1.671,2.353
-0.034,-12.935,-6.976,0.563,1.5,0.676
2.124,-12.406,-6.082,0.43,0.502,-0.189
3.657,-10.326,-4.979,0.281,0.207,-0.549
5.891,-8.028,-2.965,0.14,0.657,-0.597
7.641,-7.106,-2.126,-0.052,0.49,-0.271
5.776,-7.208,-4.586,-0.48,-0.27,-0.131
3.192,-8.589,-7.125,-0.787,-0.525,-0.363
1.157,-11.03,-8.909,-1.179,-1.121,-0.667
-1.586,-13.976,-9.934,-1.551,-1.971,-1.013
-5.04,-14.831,-9.564,-1.902,-2.564,-2.143
-7.02,-10.549,-6.187,-2.605,-3.271,-3.725
-6.18,1.039,-3.541,-2.153,-1.844,-4.04
0.574,2.376,-1.937,-2.639,-0.003,-2.075
3.324,10.183,-1.475,-2.534,-0.012,-0.2
6.044,14.327,-2.064,-1.992,0.563,2.113
6.543,9.755,-3.804,-0.766,1.932,4.481
5.449,-0.512,-5.606,-0.468,1.827,5.056
-0.179,-2.096,-6.746,0.743,0.927,3.056
-0.025,-9.074,-7.904,1.123,1.778,1.067
3.693,-12.709,-6.537,1.102,2.03,-0.241
8.169,-11.141,-5.02,0.79,1.361,-0.607
10.231,-10.28,-3.351,0.387,0.668,-0.157
10.695,-7.746,-2.342,0.032,0.169,0.534
9.097,-6.977,-1.899,-0.369,-0.366,1.262
4.055,-7.188,-4.347,-0.832,-1.234,1.432
-1.135,-8.852,-6.658,-1.229,-1.241,0.972
-4.641,-11.12,-8.589,-1.678,-1.822,0.106
-8.826,-13.931,-8.891,-2.092,-2.141,-1.36
-9.683,-11.912,-6.519,-2.557,-2.279,-3.422
-8.708,1.991,-6.867,-2.512,-2.738,-4.701
-0.421,-3.294,-3.337,-2.729,-0.801,-2.749
2.646,4.588,-1.607,-2.51,-0.899,-0.912
6.333,10.753,-2.096,-2.005,0.142,1.367
8.222,9.876,-3.908,-1.162,1.267,4.192
9.049,-3.342,-2.982,-0.719,2.545,6.044
1.093,2.165,-6.422,0.362,0.873,4.475
-0.978,-5.283,-8.484,1.088,1.802,2.827
-0.492,-10.588,-8.544,1.391,1.745,1.235
2.67,-11.961,-6.991,1.372,1.471,0.115
4.734,-11.56,-4.451,1.128,0.752,-0.34
6.433,-9.497,-3.116,0.557,0.595,-0.346
8.195,-7.879,-1.528,-0.031,0.271,-0.076
7.622,-7.856,-2.535,-0.775,-0.806,0.234
3.199,-8.973,-6.844,-1.443,-1.983,0.197
-1.093,-11.014,-9.173,-1.733,-1.675,-0.018
-3.259,-14.601,-9.102,-2.111,-2.179,-0.681
-9.845,-16.657,-6.897,-2.872,-3.191,-2.287
-8.762,1.369,-6.107,-3.471,-4.001,-4.002
-8.373,9.198,-0.328,-1.847,-1.341,-4.518
1.896,16.158,3.14,-2.329,0.249,-3.261
4.247,23.443,2.179,-2.047,0.093,-1.395
9.669,27.224,-0.944,-1.045,1.778,1.208
9.362,9.521,-0.265,0.073,4.109,3.52
11.24,2.861,-3.751,-0.78,2.716,4.388
3.768,-3.022,-7.702,0.41,1.245,3.322
4.01,-9.151,-7.669,0.934,2.407,2.027
6.364,-12.358,-6.797,0.968,1.935,1.081
7.05,-11.541,-6.054,0.915,0.968,0.679
7.205,-10.422,-4.396,0.702,0.554,0.536
7.646,-8.807,-2.162,0.294,0.416,0.616
7.613,-6.932,-1.411,-0.154,-0.019,0.543
6.432,-6.565,-2.641,-0.557,-0.294,0.405
4.77,-7.686,-5.466,-0.988,-0.736,0.155
2.567,-10.021,-8.086,-1.325,-1.087,-0.089
-1.471,-13.962,-8.772,-1.687,-1.806,-0.505
-5.895,-16.536,-8.595,-2.22,-2.705,-1.463
-9.861,-13.021,-6.877,-2.944,-3.328,-3.174
-12.459,2.833,-7.026,-3.02,-3.346,-4.753
-3.038,-2.422,-2.417,-3.387,-1.371,-2.895
-0.468,6.761,-2.287,-3.006,-1.166,-1.31
3.878,12.655,-2.835,-2.209,0.542,0.816
7.909,10.357,-3.407,-1.106,1.745,3.445
10.458,-4.946,-1.292,-0.446,2.671,5.511
1.912,0.975,-4.742,0.698,1.416,3.74
2.414,-6.998,-6.161,0.956,2.299,2.237
3.42,-11.673,-6.885,0.933,1.749,0.888
5.031,-12.876,-6.442,0.806,1.286,-0.074
7.497,-11.576,-5.608,0.513,1.019,-0.28
8.968,-9.857,-4.763,0.028,0.666,0.025
9.526,-7.844,-3.679,-0.289,0.099,0.453
7.616,-7.255,-4.082,-0.567,-0.324,0.748
4.955,-8.375,-6.214,-0.883,-0.628,0.785
0.999,-11.109,-8.462,-1.213,-1.383,0.477
-3.816,-14.023,-9.135,-1.6,-2.161,-0.488
-8.546,-14.968,-6.405,-2.177,-2.699,-2.464
-9.734,2.668,-6.851,-2.715,-3.794,-4.331
-4.879,8.528,-1.787,-1.509,-1.733,-4.176
0.574,19.422,0.337,-1.712,-1.217,-3.132
4.092,26.029,0.178,-1.25,-0.446,-0.771
8.705,29.397,-3.035,-0.51,0.982,2.219
10.346,11.376,-2.012,0.363,2.735,4.716
5.424,7.12,-6.907,-0.157,1.267,4.932
1.1,-2.739,-8.084,0.946,1.709,4.032
2.266,-8.9,-7.689,1.22,1.772,2.259
2.342,-12.249,-7.211,1.156,0.861,1.076
2.844,-11.594,-6.371,0.945,0.414,0.419
3.381,-11.275,-4.939,0.524,0.197,0.056
4.513,-10.085,-4.923,0.033,-0.093,-0.148
4.225,-8.819,-5.41,-0.262,-0.158,-0.201
3.944,-9.304,-6.223,-0.399,0.096,-0.265
3.698,-10.752,-7.296,-0.577,0.053,-0.273
1.364,-13.257,-7.46,-0.912,-1.091,-0.185
-3.835,-15.427,-6.279,-1.42,-1.848,-0.636
-7.534,-14.415,-3.762,-2.184,-2.259,-2.235
-8.561,3.991,-4.714,-2.746,-3.803,-3.997
-7.16,8.083,-1.385,-1.582,-2.047,-4.02
4.427,24.567,1.18,-1.805,-0.557,-2.905
8.688,32.286,0.183,-1.021,-0.614,-0.904
9.22,32.456,-2.362,0.373,0.381,2.151
9.048,14.256,-0.693,1.632,2.892,4.23
5.289,9.684,-3.916,1.287,1.302,4.122
-5.52,-6.215,-7.055,2.267,1.069,2.584
-4.516,-12.43,-6.311,2.145,1.999,0.665
2.1,-13.14,-3.525,1.448,1.958,-0.814
6.213,-10.828,-2.123,0.744,1.125,-0.787
8.902,-7.271,-0.685,-0.016,0.784,-0.444
9.442,-5.646,-0.921,-0.605,0.1,0.042
7.681,-6.127,-4.101,-1.079,-0.447,0.316
2.366,-8.605,-8.599,-1.316,-1.244,0.215
-2.814,-12.885,-9.752,-1.511,-2.104,-0.413
-6.584,-15.942,-9.657,-1.864,-2.725,-1.724
-8.378,-13.484,-7.062,-2.877,-3.362,-3.587
-8.657,1.788,-6.647,-2.859,-2.959,-4.343
-2.611,3.275,-3.949,-3.399,-1.616,-2.325
-0.497,12.138,-4.681,-3.045,-1.134,-0.311
2.18,16.971,-6.198,-2.319,0.539,1.856
4.315,13.231,-8.245,-0.68,2.449,4.506
5.267,-1.434,-6.679,0.052,2.911,5.679
-0.375,-2.897,-7.727,1.303,2.224,3.843
-0.177,-10.334,-7.841,1.299,2.432,1.755
2.083,-14.414,-6.122,1.095,1.885,0.263
7.229,-12.657,-3.573,0.501,1.218,-0.502
9.831,-11.214,-1.502,-0.047,0.571,-0.144
11.145,-7.17,0.123,-0.533,0.045,0.444
10.848,-4.321,1.597,-0.456,-0.055,1.124
8.107,-3.277,0.452,-0.357,-0.138,1.53
3.63,-4.675,-3.513,-0.339,0.052,1.136
2.194,-7.162,-7.057,-0.617,-0.585,0.229
0.236,-10.902,-10.282,-0.959,-1.116,-0.565
-2.744,-15.074,-11.203,-1.568,-2.244,-1.692
-6.481,-15.912,-8.405,-2.632,-3.412,-3.507
-8.463,2.3,-6.35,-3.784,-5.444,-4.998
-6.597,0.808,4.404,-2.402,-2.945,-4.559
-1.074,14.603,8.202,-1.994,-1.873,-3.487
1.659,21.344,8.132,-1.244,0.024,-1.244
7.139,23.482,4.944,-0.069,1.663,1.915
8.571,5.91,4.134,1.578,3.66,4.447
4.599,8.415,-5.348,1.116,2.338,4.686
-1.124,-5.169,-7.715,1.596,2.497,3.852
-0.036,-10.279,-8.651,1.48,2.29,2.039
1.435,-12.208,-7.428,1.274,1.64,0.235
4.257,-11.297,-5.683,0.815,1.063,-0.757
8.14,-9.264,-3.174,0.251,0.9,-0.908
11.016,-5.85,-1.072,-0.191,0.166,-0.63
10.556,-3.219,0.996,-0.153,-0.267,-0.071
8.555,-3.758,0.027,0.041,-0.095,0.331
6.795,-6.819,-4.415,-0.123,0.023,0.297
4.519,-10.955,-7.777,-0.477,-0.98,-0.074
1.595,-14.434,-10.011,-0.789,-1.335,-0.495
-0.823,-18.578,-9.878,-1.295,-2.26,-1.411
-5.162,-17.419,-7.238,-2.217,-3.859,-3.168
-8.879,2.303,-7.911,-2.535,-4.659,-4.674
-2.846,-1.613,-0.598,-1.911,-2.172,-3.297
1.721,9.739,1.377,-1.94,-1.292,-1.798
3.782,16.854,0.451,-1.649,-0.24,0.163
7.642,17.97,-1.782,-0.816,1.956,2.938
11.085,-0.792,2.359,0.029,3.815,4.988
5.445,4.104,-4.151,0.176,2.477,3.791
2.535,-7.635,-7.251,0.477,2.137,2.233
4.263,-12.63,-7.572,0.607,2.232,0.748
8.031,-13.717,-5.932,0.523,1.391,-0.399
10.515,-10.951,-4.611,0.281,0.39,-0.245
11.18,-8.065,-2.061,-0.126,-0.148,0.291
11.123,-4.295,0.661,-0.148,-0.173,0.96
8.838,-4.548,-0.129,-0.367,-0.446,1.358
4.382,-6.287,-4.822,-0.786,-1.045,1.254
-0.584,-9.884,-7.883,-1.213,-1.436,0.492
-5.095,-13.857,-8.955,-1.712,-1.725,-0.673
-8.375,-16.251,-8.587,-2.442,-2.669,-2.603
-8.394,0.652,-9.236,-2.958,-4.331,-4.506
-6.296,9.907,-2.62,-1.697,-1.97,-4.757
2.146,24.766,-0.204,-1.58,-1.732,-3.466
4.928,32.878,-1.211,-0.951,-1.335,-1.026
8.165,36.615,-2.399,0.084,0.346,1.852
8.221,19.66,-0.844,1.159,2.469,4.193
5.74,11.026,-5.325,0.834,1.074,4.684
-1.598,-4.272,-7.395,1.407,1.6,3.472
-0.026,-10.858,-7.373,1.389,1.822,1.336
2.257,-13.98,-5.773,1.13,1.232,-0.319
5.122,-12.404,-4.227,0.629,0.775,-0.752
6.963,-10.172,-2.54,0.102,0.521,-0.741
9.215,-5.575,-0.297,-0.109,0.597,-0.522
10.043,-4.174,0.662,-0.214,0.716,-0.156
9.81,-5.391,-2.044,-0.507,0.436,0.169
8.389,-7.774,-6.287,-0.85,-0.247,0.092
6.889,-10.791,-8.611,-1.18,-0.672,0.267
5.049,-14.086,-9.653,-1.482,-1.252,0.5
-2.134,-15.418,-8.868,-1.97,-3.148,-0.192
-8.027,-12.893,-5.424,-2.376,-3.076,-1.967
-7.327,6.047,-4.266,-2.729,-4.059,-3.799
-6.301,7.751,-1.528,-1.521,-1.985,-4.103
3.308,21.529,0.515,-1.637,-1.058,-3.28
8.227,27.507,-1.27,-1.229,0.397,-1.249
11.779,28.942,-3.832,-0.36,1.122,1.536
10.175,11.082,-2.409,0.844,3.416,3.572
9.743,10.385,-4.375,0.62,2.186,3.395
1.621,-4.808,-6.997,1.383,2.138,1.812
6.289,-10.33,-5.882,1.588,2.992,0.138
11.135,-12.701,-3.618,1.34,1.843,-0.678
12.602,-11.496,-2.165,0.857,1.084,-0.243
13.21,-10.341,-0.546,0.089,0.277,0.685
11.929,-6.567,0.389,-0.514,-0.949,1.582
6.172,-5.742,-0.411,-0.906,-1.804,2.005
1.01,-6.637,-4.282,-1.202,-0.836,1.659
0.95,-9.065,-7.201,-1.642,-1.453,0.826
-3.309,-11.205,-8.789,-2.081,-2.077,-0.034
-4.936,-13.333,-9.024,-2.308,-1.956,-1.256
-6.341,-11.988,-6.505,-2.843,-2.615,-3.067
-5.725,2.318,-8.044,-3.077,-3.933,-4.511
-3.549,-5.5,-1.063,-2.422,-1.358,-3.196
5.442,5.549,0.538,-2.32,-0.419,-1.81
8.316,11.489,-0.201,-2.033,0.296,0.309
10.815,10.702,-2.717,-1.1,1.323,3.041
10.091,-3.265,-0.141,-0.174,2.826,4.915
5.988,3.01,-5.936,0.081,1.155,3.79
-0.05,-8.167,-8.921,0.623,0.706,2.43
-0.896,-12.922,-8.438,0.922,0.873,0.812
2.519,-13.687,-6.383,0.95,1.497,-0.391
6.75,-11.252,-3.676,0.628,0.856,-0.476
8.193,-6.902,-2.208,0.214,0.586,-0.249
9.786,-4.763,0.35,0.06,1.177,0.102
10.034,-6.163,-1.269,-0.57,0.747,0.543
7.191,-7.397,-6.328,-1.258,-0.665,0.709
2.302,-10.533,-9.812,-1.612,-1.03,0.443
-0.398,-13.641,-11.091,-1.865,-1.578,-0.049
-4.7,-15.535,-11.051,-2.21,-2.736,-1.163
-7.941,-11.539,-7.611,-2.496,-3.238,-2.989
-8.043,3.713,-5.669,-2.304,-3.224,-4.332
-1.294,-1.701,-1.822,-2.712,-1.267,-2.542
1.384,7.381,-0.996,-2.608,-0.772,-0.934
4.795,12.096,-1.871,-2.111,0.789,0.95
7.974,9.638,-3.456,-1.073,2.205,3.39
8.497,-5.35,-2.497,-0.415,3.443,4.853
3.336,-1.092,-5.284,0.734,2.234,2.936
4.172,-9.276,-7.611,0.888,2.793,1.167
8.345,-12.964,-6.868,0.762,2.373,0.187
11.562,-12.516,-5.799,0.406,1.233,-0.152
12.478,-10.378,-4.245,0.095,0.436,0.366
12.921,-6.507,-2.575,-0.353,-0.08,1.137
10.764,-5.774,-1.69,-0.72,-0.613,1.851
5.294,-6.196,-4.899,-1.273,-1.497,1.929
-1.82,-8.075,-7.105,-1.829,-2.035,1.255
-6.033,-10.035,-7.949,-2.356,-1.685,-0.022
-9.347,-10.914,-8.472,-2.787,-2.16,-2.138
-10.926,-6.367,-6.669,-3.107,-2.837,-4.253
-9.257,5.133,-2.953,-2.488,-2.96,-5.444
-2.062,2.799,0.499,-2.691,-0.392,-3.378
3.39,8.694,0.377,-2.652,-0.896,-1.383
7.049,12.046,-1.259,-2.309,-0.412,1.274
8.459,8.609,-2.367,-1.392,1.13,4.067
9.338,-2.503,-4.085,-1.21,2.996,5.891
6.374,0.2,-7.314,0.008,1.279,4.637
2.087,-6.28,-8.824,0.752,1.136,3.61
0.006,-11.119,-7.979,1.11,1.471,2.352
1.432,-11.873,-6.7,1.039,1.347,0.971
3.42,-10.546,-3.926,0.738,0.612,0.1
5.344,-8.067,-1.726,0.252,0.44,-0.302
7.597,-5.558,0.423,-0.076,0.763,-0.423
9.211,-5.485,-0.563,-0.28,0.297,-0.248
7.658,-7.301,-4.668,-0.787,-1.833,-0.108
0.947,-10.277,-8.187,-0.993,-2.496,-0.178
-2.678,-14.571,-8.764,-1.273,-2.53,-0.885
-5.917,-16.895,-7.618,-1.95,-3.573,-2.297
-7.606,-8.451,-6.621,-3.233,-4.96,-4.103
-7.333,3.257,-2.637,-2.46,-2.399,-4.767
1.11,6.434,-1.115,-3.012,-0.602,-2.75
4.233,15.34,-2.075,-2.824,-0.487,-0.387
6.859,20.382,-5.256,-1.985,0.515,1.988
6.591,13.475,-5.086,-0.2,2.711,4.631
6.955,2.923,-6.386,-0.126,2.477,5.704
1.146,-0.079,-6.859,1.302,1.371,3.925
-1.57,-8.484,-7.41,1.672,1.445,1.834
-1.442,-12.831,-5.988,1.608,1.755,0.202
3.319,-13.221,-3.63,0.986,1.734,-1.155
7.296,-10.817,-1.395,0.36,1.023,-1.174
10.255,-7.636,0.147,-0.313,0.752,-0.73
12.474,-4.403,0.967,-0.474,0.674,0.141
11.779,-5.377,-1.308,-0.791,-0.279,1.058
5.691,-6.236,-6.026,-1.013,-1.377,1.455
0.111,-10.049,-7.452,-1.167,-1.659,0.895
-4.46,-12.944,-8.449,-1.657,-2.389,-0.114
-7.892,-15.141,-7.995,-2.2,-2.838,-1.748
-9.033,-11.356,-4.902,-2.689,-2.965,-3.9
-7.081,0.158,-4.396,-2.694,-2.911,-5.097
3.061,-8.026,-0.254,-3.121,-0.89,-2.988
7.144,0.409,0.075,-2.895,-0.727,-1.22
9.192,6.19,-1.266,-2.352,0.468,1.281
11.152,4.801,-2.326,-1.414,2.051,4.009
11.727,-6.493,-0.697,-0.737,3.033,5.812
2.478,2.233,-5.583,0.471,1.432,4.169
-0.0,-6.637,-6.967,1.097,2.048,2.833
0.604,-11.906,-6.558,1.208,1.666,0.956
3.619,-13.291,-4.436,1.02,1.558,-0.241
7.592,-11.727,-2.303,0.536,1.046,-0.421
9.08,-8.786,-0.827,-0.09,0.577,-0.088
9.321,-6.398,-0.424,-0.555,0.152,0.311
6.76,-6.348,-2.451,-0.98,-0.383,0.617
3.343,-7.632,-6.485,-1.042,-0.692,0.436
0.885,-10.915,-9.313,-1.179,-0.986,-0.182
-2.125,-15.043,-9.919,-1.409,-2.126,-1.052
-4.447,-15.732,-8.329,-1.67,-2.624,-2.752
-2.248,1.533,-5.664,-1.98,-4.133,-4.32
-0.166,9.901,-0.25,-0.57,-2.753,-4.375
5.208,21.762,1.201,-0.892,-1.108,-2.536
7.387,29.95,0.545,-0.762,-0.179,-0.462
10.26,33.075,-0.772,-0.281,1.278,2.101
9.64,16.102,-1.305,0.623,3.683,4.402
7.189,8.882,-5.636,-0.182,2.469,4.802
0.052,-3.115,-7.143,0.807,1.698,2.724
1.68,-9.29,-7.75,1.213,2.489,0.356
6.786,-11.875,-5.442,1.163,2.157,-1.041
11.017,-10.817,-3.489,0.727,1.288,-1.201
13.295,-9.397,-1.433,0.084,0.947,-0.451
14.452,-6.402,-0.793,-0.571,-0.155,0.717
11.258,-5.412,-1.603,-1.002,-1.705,1.726
3.323,-6.266,-5.55,-1.144,-2.013,1.874
-0.737,-9.525,-7.912,-1.17,-1.839,1.177
-5.136,-12.678,-8.513,-1.452,-3.041,-0.149
-8.141,-13.18,-6.736,-1.761,-3.088,-2.336
-5.936,1.286,-4.256,-2.17,-3.54,-4.364
-1.996,8.728,-2.041,-1.295,-2.123,-4.838
2.724,14.839,-1.336,-1.793,-1.055,-3.247
5.45,22.691,-1.631,-1.571,-0.07,-1.058
8.768,25.78,-3.166,-1.136,1.03,1.586
8.398,12.05,-4.104,-0.314,3.091,4.03
7.031,4.195,-5.33,-0.68,2.161,4.694
1.986,-1.196,-6.055,0.489,1.797,2.975
3.985,-8.252,-7.892,0.86,2.388,0.773
7.803,-12.004,-6.379,1.004,1.837,-0.327
9.882,-12.979,-4.988,0.816,1.222,-0.62
12.074,-11.247,-2.839,0.418,1.06,-0.169
13.487,-9.225,-2.199,-0.258,0.313,0.861
11.268,-7.848,-1.986,-0.73,-0.76,1.868
4.162,-8.186,-5.121,-1.085,-1.491,1.942
0.066,-9.577,-7.613,-1.286,-1.338,1.393
-5.326,-11.993,-9.239,-1.537,-1.957,0.256
-8.253,-11.994,-8.672,-1.506,-2.121,-2.035
-7.0,5.401,-7.797,-1.265,-3.287,-4.148
-2.146,11.255,-2.622,0.208,-1.941,-4.859
3.182,18.526,-1.017,-0.174,-0.084,-3.236
8.315,24.497,-0.757,-0.293,0.193,-0.9
11.145,27.634,-1.692,-0.265,0.652,1.764
9.447,10.458,-1.382,-0.007,2.753,4.219
6.441,5.13,-5.729,-0.729,2.769,4.948
2.447,-2.883,-7.015,0.459,1.65,3.103
2.446,-8.759,-8.469,1.067,2.133,0.825
6.413,-12.41,-6.659,1.228,2.228,-0.435
10.871,-12.028,-4.613,0.957,1.542,-0.837
13.03,-10.429,-2.254,0.505,0.806,-0.319
14.52,-6.809,-0.241,-0.175,-0.076,0.77
12.583,-4.034,1.614,-0.542,-1.186,1.898
5.361,-3.746,-0.726,-0.866,-1.906,2.323
-0.641,-4.837,-4.771,-1.185,-1.497,1.687
-3.189,-7.579,-7.789,-1.522,-1.329,0.613
-4.558,-10.137,-10.296,-1.638,-1.336,-0.623
-5.955,-12.818,-10.35,-1.641,-1.417,-2.052
-4.714,-11.651,-8.698,-1.753,-1.597,-3.936
-4.577,5.096,-9.032,-1.512,-2.986,-5.352
4.508,-2.488,-3.0,-0.854,-1.222,-3.874
7.445,7.252,-0.595,-0.693,-0.912,-2.38
9.752,13.765,-1.064,-0.407,0.903,0.127
11.773,14.319,-2.167,0.017,1.926,3.08
12.465,-2.062,-0.168,0.483,3.491,5.534
2.645,5.83,-5.231,0.716,2.179,4.561
-0.999,-4.63,-7.07,1.167,2.443,3.374
-1.234,-10.485,-7.248,1.2,1.187,1.149
-1.687,-12.113,-6.343,1.234,1.07,-0.717
5.007,-10.539,-2.999,0.809,1.658,-1.656
9.111,-8.77,-0.694,0.128,1.131,-1.446
11.527,-6.397,0.418,-0.575,0.901,-0.841
11.875,-5.62,-0.812,-1.035,0.502,0.245
9.422,-6.365,-4.169,-1.508,-1.373,0.828
1.853,-9.333,-8.527,-1.587,-2.045,0.848
-1.419,-12.953,-9.91,-1.684,-2.47,0.114
-6.411,-15.424,-9.054,-1.962,-3.823,-1.358
-9.503,-11.948,-6.313,-2.834,-4.143,-3.581
-8.148,1.632,-3.463,-2.42,-2.246,-4.54
-0.856,2.433,-1.546,-3.197,-1.243,-2.582
-0.415,11.074,-1.216,-3.101,-1.07,-0.511
2.958,16.883,-1.979,-2.523,0.967,1.622
5.846,14.167,-2.992,-1.224,2.485,4.222
5.953,0.52,-3.63,-1.158,2.538,5.223
0.843,-0.777,-5.043,0.111,2.006,3.1
3.001,-7.381,-7.627,0.427,2.923,0.893
9.3,-11.828,-7.119,0.437,2.309,-0.047
10.771,-12.68,-6.683,0.218,1.292,-0.399
11.735,-10.874,-5.732,0.078,0.608,0.082
11.741,-7.866,-4.192,-0.306,-0.089,0.809
9.738,-5.935,-2.418,-0.484,-0.668,1.456
3.888,-5.656,-4.857,-0.549,-0.797,1.164
3.161,-6.802,-8.248,-0.642,-0.688,0.412
2.789,-10.089,-10.212,-0.85,-1.17,-0.094
0.208,-13.318,-10.785,-0.89,-1.693,-0.826
-2.175,-15.502,-9.304,-1.138,-2.67,-2.191
-3.144,-3.712,-8.874,-1.822,-4.402,-3.765
-2.725,7.076,-3.808,-0.633,-2.394,-4.083
1.141,14.7,-2.144,-1.138,-0.923,-2.742
2.725,21.821,-2.099,-1.111,-0.401,-0.613
5.793,25.555,-3.156,-0.807,1.268,1.474
7.195,14.419,-1.873,0.188,3.379,3.853
5.867,5.119,-4.588,-0.543,2.232,4.382
2.586,-1.605,-5.02,0.773,2.25,2.752
5.752,-8.618,-5.681,1.067,2.811,0.514
9.638,-11.945,-5.5,1.052,2.123,-0.283
11.553,-12.345,-4.595,0.782,1.482,-0.584
12.75,-11.959,-3.123,0.446,1.021,0.031
13.229,-9.893,-2.174,-0.288,0.069,0.831
10.461,-7.203,-1.988,-0.742,-0.926,1.564
4.821,-7.036,-4.858,-1.006,-1.091,1.56
2.462,-9.079,-7.793,-1.189,-1.132,1.125
-1.447,-12.573,-8.493,-1.5,-2.193,0.43
-5.883,-14.864,-8.439,-1.752,-2.617,-0.87
-7.968,-13.047,-5.976,-2.348,-2.63,-2.858
-4.52,0.618,-6.151,-2.5,-3.83,-4.419
-3.676,-2.113,-2.503,-2.044,-1.767,-3.145
2.797,9.758,-1.276,-2.012,-0.343,-2.041
7.014,15.308,-1.483,-1.75,0.576,-0.146
10.117,15.431,-3.188,-1.056,1.534,2.415
8.361,2.205,-0.085,-0.596,3.438,4.285
8.03,6.973,-2.84,-0.484,2.307,2.832
5.357,-3.38,-4.645,0.246,2.834,1.263
9.672,-7.681,-5.75,0.426,3.552,-0.275
14.282,-10.327,-4.832,0.511,2.437,-0.998
15.734,-10.05,-4.205,0.339,1.736,-0.73
17.908,-9.645,-2.62,-0.255,1.122,0.358
17.333,-6.806,-2.456,-0.931,-0.732,1.684
10.253,-6.332,-3.003,-1.179,-2.819,2.546
2.867,-7.094,-5.805,-1.303,-2.624,2.447
-2.567,-9.865,-6.671,-1.483,-3.266,1.367
-8.75,-11.423,-5.684,-1.729,-3.913,-0.859
-10.176,-1.322,-6.343,-2.453,-4.789,-3.348
-7.721,8.216,-4.982,-1.642,-1.934,-4.236
1.019,20.766,-2.694,-1.746,-2.126,-3.063
2.666,28.536,-2.999,-1.229,-1.61,-0.995
6.344,31.883,-4.333,-0.468,0.124,1.708
7.592,19.881,-3.204,0.827,2.289,4.039
6.863,9.524,-3.534,0.696,0.888,4.775
0.231,-3.726,-5.28,1.313,1.755,3.546
2.752,-10.321,-5.645,1.296,2.265,1.944
3.857,-13.095,-5.505,0.975,1.164,0.704
4.719,-12.662,-5.01,0.562,0.688,0.342
5.187,-11.585,-4.732,0.01,0.453,0.258
5.35,-10.088,-4.548,-0.389,0.412,0.355
4.684,-9.194,-6.178,-0.74,-0.007,0.306
2.865,-10.257,-8.428,-0.91,-0.406,0.22
-0.582,-12.574,-9.981,-0.94,-1.163,-0.198
-5.001,-14.716,-8.706,-1.216,-2.14,-1.29
-7.71,-11.921,-5.794,-2.158,-3.178,-3.068
-8.19,2.406,-6.497,-2.727,-3.828,-4.466
-1.17,-2.051,-3.278,-2.841,-1.71,-2.713
2.958,6.998,-1.272,-2.929,-1.32,-1.216
7.981,13.2,-3.329,-2.516,0.073,1.162
10.748,11.391,-5.56,-1.213,1.221,3.917
10.582,-2.815,-3.378,-0.094,2.487,5.915
2.758,1.826,-5.544,0.779,1.009,4.409
-0.318,-6.336,-7.483,1.341,1.674,3.103
0.273,-11.627,-6.477,1.405,1.273,1.536
1.613,-12.823,-5.43,0.945,0.807,0.612
2.745,-12.148,-4.408,0.428,0.368,0.238
4.06,-10.351,-4.109,-0.134,0.127,0.02
4.795,-9.381,-4.928,-0.526,-0.311,-0.108
2.851,-10.039,-6.967,-0.786,-0.716,-0.135
-0.384,-11.558,-8.55,-0.943,-1.395,-0.484
-3.51,-13.494,-8.901,-1.269,-1.941,-1.246
-4.561,-14.32,-7.676,-2.038,-2.779,-2.506
-5.106,-6.632,-5.217,-3.518,-4.114,-4.12
-4.041,1.796,-3.084,-2.438,-2.516,-4.757
2.562,6.998,-3.006,-2.323,-0.36,-3.162
5.441,14.926,-2.376,-1.777,-0.106,-0.969
6.686,19.146,-3.609,-0.726,1.315,1.749
6.589,12.237,-4.009,1.203,3.218,4.466
5.236,4.442,-4.793,0.742,2.569,5.7
-2.174,-0.728,-4.584,1.427,1.377,4.443
-4.02,-7.906,-5.723,1.615,1.897,2.509
-3.662,-12.201,-5.058,1.415,1.668,0.476
0.265,-12.947,-4.536,0.925,1.605,-0.706
3.156,-11.838,-4.208,0.361,0.877,-1.099
6.385,-9.83,-4.452,-0.244,0.562,-1.144
7.828,-9.07,-5.494,-0.676,0.004,-0.792
7.041,-9.633,-7.219,-0.932,-0.658,-0.294
3.255,-10.839,-9.08,-1.101,-1.712,-0.216
-1.145,-12.868,-9.26,-1.35,-2.501,-0.556
-4.151,-14.21,-8.152,-1.628,-2.672,-1.429
-5.236,-11.747,-5.268,-2.242,-2.978,-3.144
-5.733,1.457,-6.265,-2.421,-3.308,-4.2
0.878,-5.138,-2.183,-2.27,-0.815,-2.435
5.992,4.51,-0.929,-2.114,-0.417,-0.821
7.9,10.431,-1.587,-1.56,0.426,1.376
8.892,9.391,-2.691,-0.629,1.693,4.284
9.189,-3.564,-0.31,-0.004,2.853,6.053
2.063,3.553,-3.999,0.541,1.237,4.564
-3.017,-5.685,-6.883,1.003,1.801,2.993
-1.835,-11.243,-7.568,1.016,1.436,1.094
0.523,-13.178,-7.324,0.828,1.031,-0.365
3.209,-12.338,-6.779,0.471,0.585,-0.911
5.324,-10.801,-6.656,0.003,0.235,-0.945
8.036,-9.466,-5.274,-0.185,0.031,-0.557
7.3,-9.052,-4.873,-0.324,-0.104,0.099
4.935,-9.621,-6.312,-0.5,-0.362,0.467
1.252,-11.241,-7.505,-0.794,-1.133,0.409
-3.046,-13.213,-7.505,-1.194,-1.664,-0.213
-5.478,-14.018,-6.149,-1.844,-1.992,-1.659
-5.089,-3.957,-5.95,-2.715,-3.5,-3.515
-6.54,7.95,-6.759,-2.399,-3.164,-4.972
2.58,10.552,-4.538,-2.502,-1.259,-3.27
5.192,18.814,-4.305,-1.798,-1.277,-1.1
7.635,22.719,-4.6,-0.933,-0.045,1.591
6.996,12.995,-3.784,0.102,1.967,4.228
7.642,1.713,-2.305,0.228,2.051,5.98
-2.441,-0.738,-4.953,1.023,0.965,4.111
-2.99,-7.86,-5.657,0.991,2.366,1.841
-1.21,-10.063,-6.179,0.62,2.141,-0.33
2.965,-9.559,-6.34,0.152,1.768,-1.641
6.176,-8.979,-6.861,-0.232,1.458,-2.064
10.312,-7.555,-7.044,-0.411,1.201,-1.699
12.75,-7.255,-7.709,-0.416,0.147,-0.754
10.937,-8.94,-8.875,-0.192,-0.951,0.382
6.766,-10.637,-9.773,0.079,-1.903,1.094
0.67,-13.129,-8.443,-0.016,-2.982,0.99
-3.622,-14.593,-5.105,-0.647,-3.275,-0.294
-4.976,-7.936,-3.259,-2.049,-3.872,-2.37
-7.592,4.323,-3.54,-2.258,-3.147,-3.972
-0.684,5.307,-2.375,-2.751,-1.485,-2.588
2.462,13.76,-2.115,-2.503,-0.937,-0.944
4.639,18.686,-3.638,-1.956,1.038,1.367
6.901,13.123,-3.279,-0.831,2.843,4.087
9.293,1.443,-2.349,-0.673,2.592,5.852
2.316,0.293,-3.734,0.201,1.752,4.282
1.658,-7.056,-6.221,0.358,2.685,2.627
4.522,-11.369,-7.353,0.36,1.349,1.384
3.499,-12.76,-8.485,0.385,0.378,0.49
3.985,-12.85,-8.438,0.264,0.359,0.095
4.308,-11.68,-8.88,-0.204,0.132,0.017
4.916,-11.198,-8.448,-0.506,-0.835,0.1
0.106,-11.893,-8.348,-0.727,-1.685,-0.239
-3.545,-13.136,-7.893,-0.985,-1.927,-1.249
-5.841,-11.86,-5.491,-1.699,-2.61,-3.096
-5.404,2.234,-7.684,-2.277,-3.922,-4.869
-3.253,-3.951,-2.889,-1.675,-1.672,-4.098
2.804,5.02,-0.863,-1.8,-1.353,-2.703
5.117,11.714,-1.219,-1.403,-0.07,-0.433
8.733,12.507,-2.722,-0.697,1.618,2.515
8.948,-0.709,0.786,0.05,3.332,4.989
7.086,5.892,-3.747,-0.063,1.792,4.614
2.397,-3.688,-5.436,0.567,2.24,3.706
4.596,-9.883,-5.731,0.603,2.14,2.395
4.452,-12.155,-5.146,0.507,0.92,1.402
4.1,-12.302,-4.612,0.327,0.704,0.965
4.401,-11.191,-3.741,-0.0,0.362,0.669
5.024,-9.114,-4.62,-0.285,0.259,0.295
4.584,-9.003,-6.015,-0.533,-0.408,-0.017
3.606,-9.812,-8.367,-0.61,-0.846,-0.414
1.436,-11.672,-9.393,-0.765,-1.859,-0.916
-2.049,-13.42,-9.508,-1.165,-2.522,-1.777
-3.793,-12.639,-7.068,-1.741,-3.055,-3.297
-5.771,3.217,-5.089,-2.517,-4.59,-4.76
-3.45,7.845,-0.275,-1.256,-2.138,-4.907
0.581,12.87,-0.652,-1.387,-0.364,-3.719
6.852,19.003,0.246,-1.249,0.98,-1.277
10.641,21.825,-1.368,-0.891,1.555,1.734
11.148,6.469,-1.795,0.164,3.288,4.462
7.537,2.883,-7.079,-0.597,1.904,5.411
3.65,-2.311,-7.771,-0.053,1.339,4.842
-0.601,-7.326,-10.141,0.216,0.496,3.111
-2.221,-10.786,-9.673,0.569,0.786,1.476
0.149,-9.714,-8.062,0.499,1.134,0.232
4.313,-8.154,-4.835,0.253,0.871,-0.236
7.236,-5.505,-2.337,0.125,0.669,-0.391
8.785,-6.065,-1.575,0.06,0.966,-0.055
7.761,-6.895,-5.222,-0.42,-0.263,0.141
3.372,-8.822,-8.348,-0.83,-1.551,0.054
-1.807,-11.826,-10.648,-1.086,-2.074,-0.572
-5.898,-14.197,-11.226,-1.617,-2.795,-1.775
-7.006,-11.766,-9.386,-2.309,-3.262,-3.722
-4.713,3.42,-9.759,-2.567,-3.999,-5.293
-1.944,4.802,-5.459,-1.502,-1.598,-5.312
6.428,13.695,-4.187,-1.564,0.347,-3.368
10.493,20.783,-3.79,-1.419,0.834,-1.129
12.081,22.098,-5.058,-0.965,1.555,1.762
10.421,8.083,-1.242,-0.431,3.832,4.428
10.322,8.083,-5.328,-0.952,2.38,5.185
2.294,-0.73,-8.328,-0.411,0.699,3.725
-0.621,-7.572,-11.45,0.063,0.987,2.078
-0.65,-10.225,-11.323,0.589,1.583,0.333
5.725,-9.81,-8.821,0.691,1.173,-0.821
8.634,-8.568,-5.613,0.486,0.646,-0.82
11.221,-5.692,-1.726,0.15,0.753,-0.08
12.502,-3.968,0.483,-0.099,0.304,1.004
8.466,-4.476,-1.104,-0.508,-1.472,1.832
-1.127,-5.887,-5.448,-0.721,-1.557,1.754
-5.765,-8.483,-7.795,-0.998,-1.271,0.657
-9.47,-10.745,-9.326,-1.426,-2.084,-1.251
-11.708,-9.892,-8.464,-2.043,-2.17,-3.722
-5.299,3.153,-11.353,-2.305,-2.99,-5.697
-3.414,3.125,-5.625,-1.669,-1.404,-5.215
3.278,10.439,-3.4,-2.032,-0.602,-3.087
7.552,17.205,-2.326,-1.998,0.008,-0.506
9.741,18.396,-3.072,-1.54,0.754,2.435
7.083,5.152,1.745,-1.192,3.094,5.04
8.722,5.878,-3.586,-1.542,0.822,5.164
0.162,-0.725,-6.821,-0.923,-0.416,3.424
-2.294,-6.242,-9.047,-0.23,1.012,1.337
6.477,-9.538,-6.981,0.038,1.468,0.095
8.154,-9.922,-6.247,-0.123,0.309,-0.354
7.545,-9.038,-4.454,-0.479,0.843,-0.224
9.938,-7.281,-5.168,-0.576,1.253,0.272
10.482,-7.364,-6.107,-0.764,-0.316,0.761
2.901,-7.952,-9.611,-0.672,-1.119,0.715
1.156,-8.332,-11.109,-0.511,-1.143,0.227
-1.067,-10.428,-11.342,-0.565,-2.264,-0.66
-4.988,-11.527,-7.822,-0.969,-2.893,-2.429
-4.938,2.115,-6.627,-1.567,-4.059,-3.996
-5.365,10.148,-5.205,-0.975,-2.321,-4.613
3.637,18.715,-2.634,-1.341,-0.685,-2.972
7.055,25.577,-2.652,-1.355,-0.157,-1.111
11.755,27.986,-3.345,-0.97,0.959,1.861
11.523,13.763,-2.227,-0.409,3.093,4.418
10.804,6.471,-3.329,-0.806,2.13,5.544
0.429,-2.059,-7.274,0.044,0.999,3.949
-0.341,-8.825,-8.619,0.624,1.994,2.197
2.373,-11.363,-8.927,0.859,1.926,0.474
5.921,-10.66,-8.195,0.769,1.244,-0.29
8.743,-9.372,-6.375,0.43,0.487,-0.332
10.634,-7.177,-4.081,0.064,0.234,0.051
10.09,-5.669,-3.593,-0.109,-0.393,0.542
6.307,-6.304,-5.576,-0.33,-1.205,0.733
1.465,-8.294,-7.934,-0.5,-1.484,0.419
-2.868,-11.244,-8.908,-0.714,-1.843,-0.399
-5.048,-13.776,-8.418,-1.133,-1.978,-1.681
-5.43,-12.946,-5.515,-1.972,-2.427,-3.457
-5.994,3.032,-6.746,-2.275,-3.299,-5.05
-3.948,6.931,-3.626,-1.374,-1.164,-5.127
5.577,18.173,-1.68,-1.528,-0.059,-3.275
8.758,25.39,-2.055,-1.427,0.476,-0.844
10.037,26.256,-3.938,-0.82,1.495,2.072
11.166,10.182,-0.606,-0.236,3.379,4.73
10.516,6.818,-3.312,-0.519,1.436,5.493
-0.884,-3.903,-7.191,0.015,0.18,4.096
-3.421,-10.575,-7.923,0.382,0.334,2.163
-1.393,-12.436,-6.713,0.599,0.716,0.419
4.036,-10.515,-4.884,0.327,0.126,-0.287
5.323,-8.527,-2.579,-0.206,0.104,-0.166
8.572,-6.477,-0.778,-0.488,0.351,0.269
6.172,-5.768,-2.577,-0.853,-0.7,0.651
0.925,-7.301,-5.66,-1.288,-1.469,0.711
-5.574,-9.624,-8.616,-1.575,-1.758,-0.232
-9.461,-11.718,-9.448,-1.904,-2.202,-1.928
-10.242,-10.066,-8.35,-2.436,-2.377,-4.117
-6.292,2.446,-9.449,-2.651,-2.788,-5.814
-1.64,1.118,-4.935,-1.808,-1.008,-5.084
5.051,11.147,-2.856,-1.627,-0.691,-3.19
8.231,17.689,-3.156,-1.105,0.069,-0.667
10.202,17.858,-3.584,-0.383,1.041,2.243
9.498,5.583,-0.449,0.281,2.661,4.769
7.537,7.766,-3.968,0.145,1.126,4.697
1.168,-2.941,-6.245,0.783,1.089,3.412
0.278,-9.5,-8.529,1.001,1.658,1.784
2.837,-12.184,-8.694,1.149,1.748,0.514
6.678,-11.939,-7.459,0.875,1.3,0.103
7.942,-10.421,-5.856,0.419,0.869,0.399
9.008,-7.09,-3.833,-0.094,0.686,0.963
7.575,-5.377,-1.903,-0.447,-0.069,1.352
2.683,-5.918,-3.994,-0.778,-0.718,1.116
-2.203,-8.443,-6.877,-1.028,-0.786,0.417
-4.892,-11.61,-8.419,-1.381,-1.156,-0.571
-8.666,-14.218,-8.7,-1.904,-1.948,-2.145
-9.552,-11.113,-7.324,-2.678,-2.588,-4.019
-8.769,3.115,-6.635,-2.93,-2.635,-5.186
1.004,3.054,-3.122,-3.253,-1.841,-3.109
2.245,11.052,-2.285,-2.749,-2.058,-1.139
6.454,15.935,-2.263,-2.032,-0.393,1.321
9.682,13.081,-3.159,-1.054,0.822,4.059
9.873,-0.636,-2.535,-0.538,1.376,6.08
0.151,0.541,-5.973,0.406,0.79,4.395
-0.541,-6.039,-8.435,0.548,1.926,2.61
0.538,-9.752,-10.248,0.691,1.582,1.02
2.815,-10.899,-9.722,0.78,1.497,0.03
5.682,-10.071,-8.358,0.692,1.187,-0.162
7.275,-8.435,-6.32,0.286,0.847,0.102
7.658,-7.088,-4.727,-0.239,0.109,0.466
4.6,-7.145,-5.658,-0.826,-0.392,0.391
2.298,-7.916,-8.112,-1.226,-0.69,-0.077
1.725,-9.851,-9.998,-1.463,-0.806,-0.463
-0.932,-12.721,-10.145,-1.695,-1.884,-0.806
-4.663,-14.08,-8.859,-1.624,-1.925,-1.899
-5.04,-9.563,-6.295,-1.827,-2.646,-3.304
-6.58,4.049,-5.338,-1.736,-2.862,-4.108
-0.564,2.192,-2.031,-2.091,-1.01,-2.427
1.759,10.256,-1.325,-2.021,-0.942,-1.176
5.237,14.132,-2.104,-1.754,0.051,0.943
8.008,9.889,-2.282,-1.144,1.58,3.416
9.241,-2.328,-1.542,-0.744,2.151,4.965
1.973,0.623,-4.627,0.333,0.78,3.294
2.362,-7.246,-6.118,1.074,2.526,1.936
5.413,-11.8,-7.551,1.149,2.287,0.796
6.854,-12.437,-7.941,1.002,1.359,0.284
7.54,-12.447,-7.603,0.63,0.773,0.35
7.536,-11.402,-6.74,0.009,0.149,0.735
6.214,-9.091,-6.648,-0.521,-0.464,0.992
3.447,-8.131,-6.505,-0.734,-0.782,0.957
1.097,-8.861,-7.938,-0.881,-0.769,0.652
-1.762,-10.493,-8.876,-1.041,-1.489,0.078
-5.09,-12.304,-8.755,-1.245,-1.675,-1.082
-6.628,-11.758,-5.921,-1.862,-1.96,-2.96
-4.489,4.736,-5.624,-2.62,-3.692,-4.661
-4.892,8.707,-4.266,-1.58,-1.732,-4.852
3.965,19.409,-2.212,-1.514,-0.485,-3.581
6.869,26.053,-2.887,-0.974,0.312,-1.275
10.268,27.606,-5.265,-0.113,1.45,1.874
9.045,11.723,-4.398,1.048,3.441,4.427
8.724,8.673,-4.974,0.685,1.993,5.145
0.18,-2.019,-6.886,1.451,1.743,4.233
0.71,-8.818,-6.94,1.658,1.77,2.723
0.573,-12.091,-6.67,1.521,1.018,1.27
1.501,-12.562,-5.822,1.04,0.791,0.529
2.987,-11.723,-5.281,0.372,0.68,0.134
4.64,-9.928,-5.785,-0.316,0.429,-0.064
4.293,-8.869,-6.234,-0.765,-0.033,-0.171
3.292,-8.917,-7.645,-0.94,0.082,-0.228
2.218,-9.848,-9.499,-0.958,-0.412,-0.467
-1.103,-12.057,-9.457,-1.09,-1.766,-0.977
-3.536,-12.699,-8.09,-1.319,-1.941,-2.117
-4.137,-8.237,-6.171,-2.093,-3.03,-3.723
-4.67,2.231,-6.198,-2.216,-3.865,-4.859
2.246,-3.456,-1.405,-2.343,-1.641,-3.108
6.97,4.746,0.058,-2.307,-1.109,-1.335
9.129,8.789,-0.469,-1.914,-0.281,1.095
9.978,4.587,-0.999,-1.018,1.735,3.943
11.297,-4.679,-0.414,-0.712,2.828,5.81
3.574,1.185,-4.824,-0.141,0.764,4.529
0.499,-5.843,-7.217,0.388,1.375,3.278
1.314,-10.212,-7.306,0.562,1.225,1.866
3.35,-10.467,-7.255,0.516,0.498,0.82
3.138,-10.597,-6.388,0.356,0.031,0.262
3.665,-9.117,-6.301,-0.002,0.4,-0.058
4.826,-8.464,-6.568,-0.333,0.418,-0.32
4.546,-8.12,-7.638,-0.639,-0.064,-0.371
2.929,-8.545,-9.103,-0.794,-0.183,-0.62
2.87,-9.27,-10.136,-0.906,-0.621,-0.903
1.934,-10.193,-9.8,-1.07,-1.463,-1.188
-0.706,-10.906,-8.811,-1.219,-1.841,-1.651
-2.601,-10.318,-6.842,-1.422,-2.229,-2.869
-2.671,-0.253,-5.865,-1.684,-3.618,-4.424
-3.933,7.549,-4.299,-1.148,-2.203,-4.952
5.206,10.685,-2.664,-1.541,-0.324,-3.111
8.43,17.11,-2.584,-1.543,-0.556,-0.995
10.783,19.853,-3.716,-1.334,0.445,1.857
10.967,11.067,-4.058,-0.986,2.191,4.712
11.236,4.72,-6.198,-1.142,1.486,6.227
2.046,1.588,-8.615,-0.087,0.365,5.143
-0.822,-4.137,-9.57,0.715,1.13,3.618
-1.403,-7.309,-9.306,1.267,0.826,1.852
-0.117,-8.03,-8.186,1.477,0.772,0.485
2.671,-8.982,-6.252,1.201,0.746,-0.258
4.488,-8.452,-5.48,0.598,0.471,-0.618
6.323,-8.523,-5.504,-0.119,-0.033,-0.586
4.978,-9.023,-6.926,-0.748,-0.582,-0.408
2.201,-10.2,-8.88,-1.101,-1.027,-0.373
-1.983,-12.037,-9.588,-1.274,-2.122,-0.784
-6.183,-12.987,-8.918,-1.456,-2.399,-1.867
-8.068,-10.757,-6.432,-1.899,-2.648,-3.565
-7.85,3.996,-5.286,-2.12,-1.551,-4.688
1.641,0.869,-1.905,-2.179,-0.356,-3.339
5.782,10.028,-1.335,-2.003,0.194,-1.462
9.593,15.413,-1.689,-1.61,1.288,0.828
12.818,13.806,-2.794,-0.935,2.431,3.678
13.382,-0.216,-2.945,-0.407,1.877,5.503
3.267,2.89,-5.762,0.195,1.069,4.541
0.536,-5.966,-7.258,0.586,1.802,2.979
1.515,-11.107,-8.08,0.74,1.44,1.537
2.815,-12.105,-7.461,0.709,0.767,0.544
4.318,-11.857,-5.964,0.55,0.587,0.244
5.934,-10.018,-4.746,0.084,0.442,0.288
6.591,-8.199,-4.255,-0.352,0.025,0.423
5.009,-8.042,-4.592,-0.69,-0.392,0.513
1.921,-8.816,-7.043,-0.953,-0.526,0.27
-0.847,-10.723,-9.18,-1.218,-1.279,-0.195
-3.225,-13.061,-9.815,-1.384,-1.871,-1.018
-5.755,-13.46,-7.319,-1.755,-2.425,-2.425
-4.962,-5.544,-6.504,-2.671,-3.044,-4.115
-4.553,4.951,-5.101,-2.033,-2.267,-5.013
1.768,7.427,-3.681,-2.225,-0.675,-3.54
5.208,15.409,-2.649,-2.237,-0.491,-1.448
8.278,18.97,-4.992,-1.827,0.749,1.215
8.25,11.745,-4.541,-0.721,1.975,3.895
8.634,2.618,-5.479,-0.956,1.799,5.49
2.771,1.045,-6.585,-0.039,1.071,4.477
0.798,-5.724,-8.535,0.669,1.71,2.921
0.987,-9.482,-8.276,1.106,1.474,1.355
3.083,-10.108,-7.737,1.229,1.549,0.221
4.998,-10.623,-6.239,0.933,1.013,-0.384
7.346,-9.943,-5.906,0.331,0.599,-0.55
8.283,-9.513,-5.586,-0.197,-0.106,-0.356
7.116,-9.796,-6.13,-0.593,-0.661,-0.042
3.674,-10.41,-7.41,-0.9,-1.598,0.1
-0.358,-11.386,-7.689,-1.076,-2.3,-0.27
-3.969,-12.301,-6.26,-1.567,-3.401,-1.36
-7.94,-9.432,-4.34,-2.649,-4.063,-3.221
-8.1,2.848,-6.061,-3.381,-4.062,-4.521
1.171,-1.16,-2.261,-3.212,-1.793,-3.292
5.485,6.843,-1.58,-2.926,-1.349,-1.619
7.472,12.238,-2.834,-2.107,0.609,0.752
12.036,11.421,-4.109,-0.826,2.305,3.675
12.687,0.407,-2.111,0.185,2.716,5.656
3.349,5.256,-6.325,0.526,1.249,4.853
0.452,-2.097,-7.43,1.077,2.339,3.7
1.854,-7.567,-7.393,1.277,1.936,2.278
1.444,-10.005,-7.507,1.363,1.046,0.996
2.323,-11.052,-6.552,1.208,1.04,0.164
4.733,-11.138,-5.222,0.755,0.972,-0.144
6.635,-10.401,-5.389,0.014,0.11,-0.144
5.196,-9.567,-5.473,-0.518,-0.408,0.076
4.192,-9.519,-6.13,-0.801,0.096,0.191
2.782,-10.452,-7.67,-1.148,-0.639,0.206
-2.023,-12.23,-8.508,-1.433,-1.656,-0.244
-5.593,-13.574,-7.289,-1.65,-1.724,-1.447
-6.27,-10.662,-5.361,-2.335,-2.521,-3.308
-4.863,1.122,-8.355,-2.732,-4.549,-4.677
-2.738,-1.521,-3.786,-2.296,-2.243,-3.254
1.661,7.301,-2.708,-2.052,-1.336,-2.107
4.777,12.657,-3.104,-1.767,-0.345,0.273
7.469,12.611,-4.348,-0.998,1.404,3.181
7.274,1.951,-0.923,-0.412,3.107,5.276
4.942,5.651,-5.351,-0.133,1.647,4.411
3.915,-1.901,-6.742,0.552,1.626,3.822
3.412,-7.138,-7.417,1.155,1.143,2.597
2.449,-10.92,-7.54,1.465,0.47,1.425
2.688,-12.177,-6.931,1.299,0.606,0.709
4.175,-11.963,-6.098,0.655,0.154,0.307
4.179,-11.049,-5.772,-0.041,-0.24,0.259
3.236,-10.48,-6.095,-0.638,-0.612,0.218
1.256,-10.257,-7.313,-1.074,-0.891,0.099
-1.787,-10.685,-7.941,-1.276,-1.674,-0.356
-5.54,-11.384,-7.755,-1.479,-1.969,-1.414
-6.698,-9.911,-5.897,-1.969,-2.126,-3.279
-5.117,2.532,-7.156,-2.637,-3.515,-5.046
-3.873,6.902,-6.273,-1.865,-1.445,-5.449
5.867,16.805,-4.503,-1.74,-0.379,-3.518
8.996,23.139,-4.894,-1.268,0.491,-1.062
11.828,23.582,-6.036,-0.614,1.743,1.987
11.442,11.707,-4.099,0.307,3.544,4.693
10.89,7.913,-5.042,0.095,1.708,5.724
0.93,-2.301,-7.041,0.515,1.252,4.502
0.803,-8.134,-7.551,0.643,1.195,2.918
0.421,-10.349,-7.33,0.708,0.483,1.425
2.171,-10.371,-6.931,0.569,0.287,0.513
3.88,-9.653,-5.576,0.234,0.219,0.121
5.992,-7.928,-5.569,-0.006,0.247,-0.162
5.533,-8.135,-6.304,-0.284,-0.229,-0.223
3.748,-9.223,-8.164,-0.582,-0.676,-0.258
-0.442,-10.946,-9.408,-0.869,-1.332,-0.652
-3.774,-13.124,-9.419,-1.261,-1.759,-1.443
-5.841,-13.508,-6.588,-2.087,-2.41,-2.73
-5.977,-5.995,-5.154,-3.189,-3.727,-4.319
-7.749,5.138,-2.61,-2.833,-2.936,-5.4
1.254,4.567,0.491,-3.17,-0.584,-3.507
4.65,12.09,0.916,-3.025,-0.442,-1.564
7.875,15.71,-1.837,-2.336,0.523,0.886
8.355,9.469,-2.253,-1.138,2.408,3.559
11.591,-0.106,-4.331,-1.117,2.298,5.425
3.876,1.562,-6.806,-0.181,0.595,4.121
2.843,-4.522,-8.429,0.435,1.297,2.896
2.953,-8.365,-7.874,0.839,1.01,1.634
3.759,-9.5,-7.516,1.02,0.826,0.713
4.784,-10.004,-6.49,0.894,0.626,0.234
5.675,-9.628,-6.899,0.418,0.273,0.112
5.445,-9.461,-6.498,-0.096,-0.257,0.102
3.851,-9.681,-6.822,-0.534,-0.194,0.201
2.575,-9.906,-6.892,-0.991,-0.261,0.154
0.306,-9.731,-7.55,-1.349,0.054,-0.07
-0.986,-10.346,-7.687,-1.481,-0.249,-0.6
-3.755,-10.418,-7.72,-1.526,-0.641,-1.821
-4.15,-5.971,-7.287,-1.584,-1.622,-3.558
-3.118,5.897,-8.717,-1.322,-2.261,-5.007
6.411,0.352,-3.999,-1.672,-0.932,-3.148
9.861,8.134,-2.266,-1.817,-1.042,-1.255
12.573,11.793,-2.179,-1.745,-0.231,1.388
13.402,8.589,-2.348,-1.389,1.206,4.41
12.386,-2.404,-1.193,-1.178,1.635,6.684
1.07,2.37,-5.346,-0.147,-0.724,5.466
-4.22,-4.12,-6.452,0.593,-0.278,3.781
-4.487,-7.638,-5.352,0.913,-0.065,1.83
-2.748,-8.606,-4.937,0.73,-0.305,0.134
-1.139,-9.492,-4.985,0.375,-0.093,-0.769
1.309,-9.119,-5.932,-0.198,0.148,-1.291
3.361,-9.994,-6.874,-0.709,0.147,-1.149
2.676,-10.652,-8.553,-1.101,-0.351,-0.824
-0.649,-11.137,-9.364,-1.353,-1.196,-0.859
-4.406,-11.332,-9.118,-1.601,-1.91,-1.691
-6.446,-10.21,-7.233,-1.951,-2.118,-3.338
-4.469,2.45,-8.556,-2.223,-3.587,-5.027
-3.869,8.225,-5.407,-1.539,-1.704,-5.2
5.034,18.633,-3.522,-1.559,-1.316,-3.293
8.055,24.671,-3.576,-1.181,-0.917,-0.867
9.945,25.807,-4.215,-0.627,0.375,2.126
9.672,13.567,-2.134,-0.212,2.423,4.704
9.308,8.655,-4.995,-0.592,0.476,5.5
0.288,-1.775,-7.537,-0.082,0.746,4.119
0.498,-7.424,-8.304,0.319,1.294,2.52
1.849,-9.501,-8.747,0.661,0.865,1.147
2.177,-9.787,-8.114,0.859,0.351,0.428
2.899,-9.998,-7.38,0.723,0.534,0.074
4.21,-9.44,-7.25,0.331,0.399,0.004
2.59,-9.49,-7.147,-0.245,-0.174,-0.032
0.517,-9.801,-8.025,-0.757,-0.368,-0.221
-0.479,-10.273,-8.966,-1.07,-0.679,-0.705
-2.913,-11.132,-8.993,-1.426,-1.683,-1.405
-3.971,-11.066,-7.774,-1.621,-1.942,-2.542
-3.679,-6.909,-6.255,-2.192,-2.574,-4.128
-3.493,2.28,-5.422,-2.028,-2.399,-4.774
2.503,-1.466,-2.112,-2.0,-0.128,-3.5
8.77,5.734,-0.473,-2.107,1.216,-1.657
12.074,9.654,-0.788,-2.049,1.56,0.633
12.76,7.033,-1.428,-1.375,2.572,3.376
14.05,-1.852,-1.498,-1.275,2.986,4.991
8.611,1.994,-4.962,-0.942,1.47,4.66
5.333,-5.224,-6.847,-0.329,1.372,3.987
4.108,-9.239,-7.305,0.058,0.965,3.242
3.266,-10.427,-7.385,0.235,0.443,2.442
2.202,-9.728,-7.066,0.226,-0.244,1.788
0.787,-8.842,-6.69,-0.078,-0.63,1.074
0.132,-8.097,-6.975,-0.409,-0.821,0.261
-0.834,-8.326,-7.672,-0.787,-0.67,-0.459
-0.896,-9.044,-8.837,-1.132,-0.98,-1.067
-4.181,-10.684,-9.193,-1.614,-1.888,-1.784
-6.072,-11.198,-8.19,-1.914,-2.093,-2.809
-7.536,-8.189,-6.235,-2.515,-2.875,-4.298
-7.251,2.863,-7.014,-2.767,-3.89,-5.642
-4.613,-0.483,-1.658,-2.241,-1.545,-4.788
1.906,7.864,-0.563,-2.193,-1.003,-3.371
5.749,12.317,-1.705,-1.865,0.096,-1.048
10.111,11.158,-3.544,-1.205,1.408,1.716
11.722,1.477,-2.529,-0.583,2.773,4.221
9.908,5.922,-7.544,-0.537,1.237,4.407
6.759,-1.505,-8.721,0.297,1.622,4.107
5.142,-6.119,-8.297,0.84,1.192,3.233
3.316,-7.865,-7.654,1.236,0.583,2.274
1.925,-9.015,-6.075,1.272,0.628,1.27
4.265,-9.036,-4.373,1.001,0.796,0.602
5.532,-8.636,-3.674,0.43,0.735,0.135
6.011,-8.812,-5.549,-0.265,0.258,-0.187
3.615,-9.696,-7.74,-0.8,-0.693,-0.404
0.99,-10.883,-9.402,-0.967,-1.066,-0.556
-2.458,-12.308,-9.882,-1.153,-1.939,-1.148
-4.724,-12.341,-9.417,-1.519,-2.62,-2.153
-5.398,-9.013,-6.225,-1.958,-2.988,-3.635
-2.627,0.18,-6.968,-2.206,-3.026,-4.9
-0.751,4.012,-6.351,-1.589,-1.179,-5.097
6.099,7.885,-5.539,-1.659,0.101,-3.522
7.395,12.074,-5.285,-1.273,0.618,-1.583
10.527,12.105,-5.808,-0.687,1.931,0.994
11.126,5.469,-2.614,-0.252,3.223,3.392
12.43,3.958,-2.384,-0.862,1.816,4.621
7.306,1.029,-4.421,-0.428,1.317,4.257
6.509,-3.645,-5.664,0.046,1.546,3.688
4.078,-7.279,-6.784,0.535,1.176,2.803
3.007,-9.772,-6.904,0.77,0.894,1.973
3.007,-10.895,-6.476,0.814,0.456,1.273
2.922,-10.555,-5.484,0.544,0.081,0.616
3.43,-10.408,-6.124,0.086,0.003,0.056
3.169,-10.386,-7.039,-0.495,-0.7,-0.311
1.741,-10.216,-8.44,-0.899,-1.184,-0.659
-0.722,-11.235,-8.97,-1.16,-1.607,-1.022
-3.951,-12.405,-8.976,-1.482,-2.135,-1.655
-5.599,-11.846,-7.441,-1.961,-2.581,-2.826
-5.596,-4.409,-5.788,-2.556,-3.535,-4.376
-5.976,3.67,-5.935,-2.108,-2.838,-5.154
2.004,5.161,-2.673,-2.241,-0.456,-3.673
4.92,10.598,-1.844,-2.257,-0.093,-1.944
8.11,13.841,-2.502,-2.054,1.061,0.486
9.643,9.238,-2.363,-1.495,2.832,3.1
12.436,2.686,-1.696,-1.752,2.785,4.631
7.069,2.083,-5.535,-1.154,1.392,3.817
7.887,-3.008,-7.413,-0.399,1.701,3.051
7.479,-7.742,-7.849,0.206,1.13,2.14
7.302,-10.139,-8.376,0.461,0.371,1.551
6.389,-11.037,-7.259,0.497,0.05,1.246
6.139,-10.104,-6.117,0.305,-0.429,1.09
4.675,-8.814,-5.419,0.035,-0.564,0.779
2.921,-7.85,-6.157,-0.228,-0.585,0.385
1.613,-8.432,-7.536,-0.49,-0.592,-0.237
-0.294,-9.566,-9.276,-0.768,-1.083,-0.835
-3.504,-11.576,-9.98,-1.09,-1.66,-1.574
-5.24,-12.898,-9.297,-1.505,-2.128,-2.612
-6.298,-9.147,-7.293,-2.085,-3.071,-4.126
-6.602,2.696,-5.285,-2.061,-2.096,-5.028
3.152,5.678,-3.078,-2.318,-0.176,-3.259
6.742,14.234,-1.239,-2.327,-0.281,-1.281
10.222,18.378,-1.452,-2.301,0.96,1.262
12.821,15.653,-2.125,-1.922,2.122,4.099
13.314,4.932,-3.753,-1.721,1.21,6.043
1.994,2.539,-6.648,-0.912,-0.393,5.004
-1.286,-4.793,-9.526,-0.211,0.723,3.475
-2.344,-8.336,-10.141,0.329,0.182,1.682
-1.245,-9.427,-10.148,0.603,-0.071,0.412
-0.188,-9.387,-9.394,0.612,-0.018,-0.341
2.404,-8.73,-8.225,0.318,0.18,-0.71
3.903,-9.165,-7.934,-0.198,-0.466,-0.629
1.059,-10.072,-8.5,-0.678,-1.006,-0.518
-3.8,-10.762,-8.562,-1.136,-1.263,-1.052
-7.404,-10.858,-7.843,-1.704,-1.481,-2.355
-9.055,-6.879,-6.856,-2.236,-2.31,-4.109
-8.871,4.63,-7.817,-2.162,-2.866,-5.656
1.388,-1.177,-1.231,-2.442,-0.732,-3.993
5.735,5.704,0.111,-2.457,-0.976,-2.103
9.663,9.457,-0.057,-2.178,-0.295,0.513
12.869,6.715,-0.295,-1.84,1.315,3.432
14.416,-3.655,0.924,-1.866,2.564,5.93
7.308,2.651,-6.263,-1.212,0.966,5.237
4.242,-3.436,-9.443,-0.532,1.093,4.505
1.526,-7.234,-11.018,0.105,1.106,3.319
0.669,-8.314,-11.491,0.47,0.356,2.016
0.781,-8.989,-10.724,0.581,-0.054,0.954
0.711,-8.575,-9.7,0.422,-0.274,0.143
1.854,-8.875,-8.785,0.05,-0.298,-0.399
1.489,-9.808,-8.393,-0.457,-0.912,-0.683
-1.218,-11.391,-8.358,-0.875,-1.318,-1.056
-5.506,-12.45,-7.564,-1.325,-1.678,-1.926
-9.117,-10.846,-5.222,-2.032,-2.002,-3.595
-5.362,4.798,-7.911,-2.246,-3.369,-5.244
-7.368,5.763,-5.937,-1.46,-1.357,-5.245
4.713,14.492,-3.532,-1.561,-0.246,-3.195
8.563,21.064,-4.722,-1.149,-0.134,-0.697
11.122,20.861,-6.716,-0.134,0.739,2.352
8.071,5.084,-2.931,0.558,3.003,4.932
11.018,4.163,-4.528,0.31,0.962,5.621
-2.213,-4.107,-6.669,0.961,0.248,4.25
-2.945,-9.951,-6.008,1.229,1.146,2.597
-0.686,-11.423,-5.217,0.938,0.647,1.118
0.271,-10.598,-4.988,0.5,0.147,0.348
1.086,-9.434,-4.304,0.132,0.253,-0.174
3.467,-9.07,-4.941,-0.144,0.347,-0.564
3.532,-9.694,-6.31,-0.572,-0.379,-0.648
0.606,-10.562,-7.77,-0.863,-0.904,-0.692
-1.963,-11.538,-8.527,-1.077,-1.401,-1.116
-3.105,-11.973,-8.289,-1.347,-1.571,-1.633
-3.274,-11.261,-6.927,-1.755,-2.009,-2.315
-3.645,-8.062,-5.013,-2.217,-2.237,-3.807
-3.458,5.62,-6.888,-2.318,-2.597,-5.258
5.217,-0.222,-3.22,-2.173,-0.371,-3.899
8.783,6.369,-2.479,-2.023,-0.761,-1.875
10.364,10.504,-3.266,-1.492,0.464,0.541
11.299,10.279,-3.76,-0.816,1.302,3.563
12.104,-2.356,-1.238,-0.226,2.445,6.107
3.316,4.078,-5.487,0.228,0.46,5.528
-2.048,-3.073,-7.383,0.734,1.173,4.036
-2.699,-7.595,-7.679,0.963,1.003,2.239
-1.574,-9.783,-7.922,0.963,0.422,0.731
-0.43,-10.021,-7.772,0.709,0.3,-0.182
1.362,-10.136,-7.428,0.256,0.355,-0.601
3.872,-9.653,-7.227,-0.234,0.205,-0.583
3.336,-9.772,-7.691,-0.685,-0.427,-0.327
0.636,-10.382,-8.254,-0.93,-0.862,-0.236
-3.6,-11.189,-8.489,-1.192,-1.453,-0.679
-6.115,-11.601,-7.476,-1.47,-1.586,-1.724
-7.324,-9.002,-5.548,-2.018,-1.935,-3.456
-5.32,2.81,-6.727,-2.424,-2.719,-5.177
-3.006,4.068,-4.581,-2.014,-0.437,-5.139
6.015,11.553,-3.404,-2.01,-0.016,-3.397
9.936,17.007,-4.267,-1.779,0.647,-0.963
12.351,17.003,-5.776,-1.294,1.421,1.996
11.376,6.136,-4.17,-0.694,2.531,4.626
9.46,5.649,-6.677,-0.6,0.908,5.217
2.645,-1.407,-8.458,0.087,0.822,4.168
0.927,-6.38,-8.437,0.663,0.843,2.693
1.349,-9.11,-8.116,1.102,0.907,1.48
2.235,-10.066,-7.636,1.05,0.529,0.613
3.154,-10.315,-7.066,0.62,0.357,0.189
4.451,-9.901,-6.956,0.121,0.216,0.019
3.635,-9.999,-6.939,-0.384,-0.214,0.101
2.514,-10.107,-7.279,-0.76,-0.268,0.083
0.619,-10.541,-7.567,-1.115,-1.057,0.024
-4.156,-11.231,-7.405,-1.391,-1.673,-0.542
-7.543,-11.446,-5.55,-1.72,-1.67,-1.98
-7.978,-4.232,-5.291,-2.385,-2.718,-3.725
-8.552,7.338,-5.399,-2.349,-2.905,-4.976
2.198,9.734,-3.114,-2.529,-0.51,-3.192
6.552,16.759,-2.425,-2.259,-0.696,-1.385
9.512,19.55,-3.468,-1.823,0.48,1.306
12.191,13.139,-3.547,-1.061,2.154,3.921
12.116,2.357,-4.14,-0.825,2.02,5.736
1.431,0.297,-6.87,0.039,0.457,4.174
0.843,-5.756,-7.881,0.587,1.521,2.83
2.253,-8.561,-7.915,0.991,0.963,1.4
2.543,-9.654,-7.6,1.173,0.572,0.506
3.774,-10.354,-6.772,0.969,0.611,0.047
4.614,-10.065,-6.463,0.491,0.476,-0.046
5.112,-10.216,-6.463,-0.01,0.126,0.024
3.854,-10.41,-7.142,-0.496,-0.277,0.117
1.13,-10.927,-7.919,-0.898,-0.981,0.007
-2.468,-12.057,-8.066,-1.195,-1.554,-0.576
-5.339,-12.837,-6.67,-1.529,-1.72,-1.827
-6.575,-7.78,-5.819,-2.184,-2.732,-3.605
-7.935,4.562,-6.228,-2.36,-2.917,-5.045
4.413,4.523,-3.31,-2.635,-0.907,-3.163
7.617,13.684,-2.409,-2.303,-1.218,-1.189
10.174,17.873,-3.281,-1.737,-0.167,1.366
11.852,12.592,-3.331,-0.836,1.437,4.158
12.315,0.811,-3.098,-0.277,1.748,6.253
-1.273,0.821,-5.826,0.614,-0.036,4.743
-2.9,-7.09,-6.897,0.919,1.254,3.149
-1.86,-10.41,-6.789,0.935,0.769,1.507
-0.082,-10.02,-6.664,0.788,0.386,0.487
1.5,-9.794,-5.736,0.53,0.305,-0.108
3.459,-8.678,-5.952,0.109,0.576,-0.402
4.387,-8.773,-6.386,-0.326,0.126,-0.423
3.482,-9.116,-7.152,-0.64,-0.187,-0.296
1.153,-9.574,-7.979,-0.875,-0.303,-0.434
-1.062,-10.468,-8.603,-1.175,-0.801,-0.698
-3.409,-11.296,-8.301,-1.472,-1.233,-1.336
-5.149,-10.67,-7.182,-1.812,-1.462,-2.602
-4.18,-1.233,-7.528,-2.019,-2.81,-4.229
-5.472,8.046,-7.431,-1.858,-2.165,-5.526
5.569,9.734,-4.952,-1.985,-1.184,-3.955
7.839,15.373,-4.222,-1.742,-1.172,-2.236
11.077,18.425,-4.151,-1.383,0.335,0.365
12.628,11.256,-2.959,-1.169,2.269,3.094
15.109,3.035,-2.809,-1.041,1.841,5.333
5.709,2.2,-5.447,-0.359,1.725,4.689
6.335,-3.316,-6.231,0.107,2.429,4.325
4.882,-7.088,-7.398,0.522,1.042,3.602
1.322,-9.581,-7.55,0.844,0.306,2.789
0.082,-10.53,-7.447,0.751,0.378,1.95
0.831,-10.671,-7.254,0.253,-0.107,1.205
0.367,-10.068,-7.363,-0.355,-0.48,0.512
-0.156,-9.809,-7.501,-0.926,-0.429,-0.101
-1.813,-9.817,-8.348,-1.506,-1.007,-0.842
-5.775,-8.884,-9.384,-1.829,-1.236,-2.095
-8.119,-8.091,-7.8,-1.847,-1.555,-3.769
-6.45,3.458,-8.405,-1.87,-3.18,-5.484
-6.825,11.828,-4.88,-1.152,-1.802,-6.372
5.702,19.763,-1.929,-1.316,-0.296,-4.495
11.333,24.528,-0.98,-1.203,-0.872,-1.953
13.7,26.33,-2.182,-1.091,-0.061,1.09
13.596,15.032,-1.373,-0.925,2.105,3.894
15.16,7.827,-5.225,-1.372,0.878,5.744
4.466,0.292,-8.191,-0.469,0.211,5.142
2.646,-4.737,-8.814,0.179,0.891,4.338
1.864,-7.755,-8.612,0.785,0.787,3.334
0.669,-8.308,-7.723,1.149,0.485,2.502
0.598,-9.205,-5.872,1.132,0.458,1.812
1.012,-8.692,-5.088,0.548,0.338,1.074
0.542,-8.555,-5.241,-0.299,0.076,0.315
-0.877,-8.178,-6.994,-1.22,-0.446,-0.533
-2.846,-8.021,-9.197,-1.857,-1.037,-1.574
-5.426,-8.791,-10.502,-2.105,-1.403,-2.856
-6.862,-9.183,-8.997,-2.229,-1.638,-4.568
-3.977,5.16,-9.485,-2.318,-3.243,-6.033
-4.089,10.157,-7.817,-1.116,-1.225,-6.281
6.356,17.018,-3.985,-1.234,-0.522,-4.395
7.524,22.254,-3.696,-1.061,-0.501,-2.071
10.538,24.807,-5.177,-0.632,0.782,0.925
10.487,11.107,-4.103,-0.064,2.695,3.554
11.987,6.631,-4.682,-0.56,1.088,5.04
3.625,-0.26,-7.149,0.345,1.191,4.461
4.562,-5.628,-6.587,0.879,1.812,3.687
4.328,-9.057,-6.5,1.117,1.352,2.773
3.864,-10.635,-5.269,1.023,0.871,2.239
4.315,-10.869,-3.661,0.497,0.249,1.942
3.01,-9.916,-2.949,-0.381,-0.171,1.704
1.397,-7.67,-4.925,-1.352,-0.136,1.101
-0.827,-5.868,-7.198,-2.063,-0.681,0.219
-2.847,-4.735,-10.014,-2.263,-0.113,-0.898
-3.306,-4.93,-12.127,-2.09,-0.088,-2.147
-4.078,-5.764,-13.386,-1.819,-0.749,-3.453
-3.681,-6.243,-11.094,-1.448,-1.27,-4.778
-1.108,2.004,-9.45,-1.075,-2.251,-5.979
-0.057,6.816,-6.719,-0.668,-1.584,-5.953
6.924,13.032,-5.389,-0.76,-0.843,-3.52
10.433,18.61,-5.224,-0.693,0.479,-0.839
13.41,20.586,-5.85,-0.753,1.059,2.027