ax,ay,az,gx,gy,gz
9.9,-0.225,1.937,-0.033,0.001,-0.016
9.955,-0.247,1.925,-0.034,0.001,-0.014
9.977,-0.22,1.918,-0.034,0.001,-0.014
9.948,-0.23,1.937,-0.034,0.002,-0.015
9.931,-0.249,1.944,-0.034,0.001,-0.015
9.938,-0.225,1.923,-0.034,0.0,-0.015
9.96,-0.218,1.937,-0.033,0.001,-0.015
9.989,-0.268,1.925,-0.034,0.001,-0.014
9.969,-0.239,1.961,-0.034,0.001,-0.014
9.934,-0.237,1.915,-0.033,0.0,-0.014
9.953,-0.239,1.923,-0.034,0.0,-0.015
9.965,-0.239,1.92,-0.034,0.0,-0.015
9.955,-0.227,1.906,-0.034,0.0,-0.014
9.955,-0.242,1.92,-0.033,0.0,-0.016
9.912,-0.23,1.891,-0.034,0.001,-0.015
9.922,-0.244,1.935,-0.034,0.001,-0.015
9.957,-0.266,1.915,-0.033,0.001,-0.015
9.929,-0.22,1.899,-0.034,0.001,-0.015
9.938,-0.242,1.925,-0.034,0.002,-0.014
9.938,-0.259,1.927,-0.034,0.0,-0.015
9.914,-0.235,1.93,-0.035,0.001,-0.014
9.95,-0.223,1.932,-0.034,0.001,-0.015
9.946,-0.239,1.935,-0.034,0.001,-0.014
9.905,-0.218,1.918,-0.034,0.002,-0.014
9.948,-0.23,1.923,-0.034,0.0,-0.014
9.977,-0.237,1.963,-0.035,0.001,-0.014
9.95,-0.239,1.946,-0.033,0.001,-0.016
9.943,-0.261,1.915,-0.035,0.001,-0.014
9.948,-0.22,1.935,-0.034,-0.0,-0.014
9.902,-0.294,2.011,-0.01,0.0,-0.014
9.967,-0.239,1.92,-0.033,-0.002,-0.016
9.917,-0.218,1.923,-0.034,0.001,-0.014
9.96,-0.287,1.908,-0.034,0.0,-0.016
9.919,-0.232,1.939,-0.034,0.0,-0.014
9.962,-0.244,1.913,-0.034,0.0,-0.016
9.96,-0.237,1.923,-0.034,0.001,-0.014
9.919,-0.247,1.92,-0.034,0.001,-0.014
9.936,-0.247,1.954,-0.034,0.001,-0.015
9.936,-0.237,1.927,-0.034,0.001,-0.015
9.934,-0.218,1.958,-0.035,0.0,-0.014
9.965,-0.251,1.908,-0.033,0.001,-0.014
9.929,-0.225,1.954,-0.033,0.001,-0.015
9.931,-0.237,1.913,-0.034,0.0,-0.014
9.936,-0.215,1.908,-0.034,0.001,-0.014
9.977,-0.251,1.93,-0.034,0.002,-0.015
9.953,-0.232,1.913,-0.033,0.0,-0.015
9.926,-0.242,1.973,-0.034,0.001,-0.015
9.955,-0.268,1.939,-0.034,0.001,-0.014
9.926,-0.223,1.896,-0.034,0.002,-0.014
9.972,-0.256,1.927,-0.034,0.001,-0.016
9.948,-0.22,1.891,-0.034,0.001,-0.014
9.917,-0.249,1.982,-0.033,0.001,-0.016
9.96,-0.244,1.92,-0.033,0.001,-0.014
9.926,-0.232,1.882,-0.034,0.001,-0.015
9.955,-0.249,1.963,-0.033,0.002,-0.015
9.948,-0.259,1.877,-0.033,0.001,-0.015
9.924,-0.206,1.961,-0.034,0.001,-0.015
9.979,-0.28,1.923,-0.034,0.001,-0.016
9.938,-0.223,1.927,-0.033,0.001,-0.015
9.948,-0.242,1.906,-0.034,0.0,-0.016
9.946,-0.244,1.935,-0.034,0.001,-0.013
9.931,-0.215,1.894,-0.034,0.001,-0.015
9.969,-0.266,1.935,-0.034,0.001,-0.015
9.938,-0.215,1.906,-0.034,0.002,-0.015
9.924,-0.237,1.903,-0.034,-0.0,-0.015
9.938,-0.254,1.958,-0.034,0.001,-0.014
9.934,-0.235,1.923,-0.033,0.001,-0.014
9.967,-0.235,1.911,-0.034,0.0,-0.015
9.96,-0.247,1.918,-0.034,0.001,-0.015
9.914,-0.223,1.932,-0.034,0.001,-0.015
9.979,-0.271,1.915,-0.034,0.001,-0.015
9.936,-0.211,1.932,-0.034,0.0,-0.014
9.955,-0.259,1.92,-0.034,0.0,-0.016
9.938,-0.249,1.915,-0.034,0.001,-0.014
9.967,-0.223,1.918,-0.034,0.0,-0.014
9.977,-0.247,1.918,-0.035,-0.001,-0.015
9.9,-0.254,1.963,-0.034,0.002,-0.015
9.823,-0.057,1.92,0.143,0.009,0.013
9.89,-1.604,2.033,0.25,-0.045,-0.01
9.924,-0.795,2.188,0.139,0.008,0.016
10.199,-0.129,1.875,-0.056,-0.001,-0.019
9.895,-0.211,1.923,-0.034,0.002,-0.016
9.957,-0.242,1.915,-0.035,-0.0,-0.013
9.972,-0.194,1.92,-0.035,0.001,-0.014
9.967,-0.225,1.963,-0.033,0.001,-0.017
9.981,-0.249,1.918,-0.035,0.002,-0.014
9.926,-0.201,1.915,-0.034,0.001,-0.015
9.969,-0.283,1.944,-0.035,0.001,-0.015
9.938,-0.254,1.87,-0.034,0.002,-0.009
9.871,-0.16,1.935,-0.033,-0.002,-0.017
9.938,-0.268,1.911,-0.034,0.004,-0.013
9.981,-0.247,1.87,-0.033,0.001,-0.014
9.912,-0.168,1.944,-0.032,0.002,-0.015
9.914,-0.314,1.853,-0.032,0.001,-0.017
9.898,-0.251,1.985,-0.033,0.002,-0.012
9.996,-0.223,1.879,-0.032,0.001,-0.016
10.032,-0.314,1.927,-0.033,0.002,-0.014
9.902,-0.215,1.918,-0.034,0.001,-0.014
9.938,-0.309,1.853,-0.033,-0.001,-0.017
9.972,-0.261,1.949,-0.034,0.001,-0.013
9.946,-0.187,1.865,-0.035,-0.001,-0.014
9.991,-0.268,1.903,-0.034,0.001,-0.017
9.041,0.091,1.717,-0.037,0.027,0.018
9.759,0.05,1.853,-0.03,-0.027,-0.022
10.748,-0.275,2.114,-0.03,-0.009,-0.018
9.984,0.18,1.753,-0.03,0.009,-0.023
9.974,-0.596,2.061,-0.029,0.006,-0.023
10.08,-0.402,2.006,-0.034,0.002,0.0
10.041,-0.065,1.824,-0.032,-0.003,-0.016
10.175,-0.496,2.073,-0.033,0.003,-0.012
9.74,-0.053,1.796,-0.034,0.005,-0.008
9.84,-0.254,1.923,-0.032,0.0,-0.02
9.993,-0.354,1.932,-0.035,0.003,-0.007
9.869,-0.024,1.817,-0.033,-0.001,-0.02
10.094,-0.445,1.997,-0.033,0.001,-0.018
9.914,-0.18,1.884,-0.035,0.003,-0.009
9.957,-0.247,1.899,-0.032,-0.001,-0.02
10.048,-0.388,2.009,-0.034,0.002,-0.012
9.895,-0.098,1.879,-0.034,0.002,-0.014
9.984,-0.294,1.918,-0.033,0.0,-0.019
9.95,-0.285,1.925,-0.035,0.001,-0.01
9.876,-0.11,1.884,-0.034,-0.0,-0.016
9.989,-0.33,1.985,-0.034,0.001,-0.017
9.895,-0.177,1.867,-0.034,0.0,-0.012
9.914,-0.201,1.906,-0.033,-0.001,-0.019
9.993,-0.326,1.961,-0.034,0.0,-0.015
9.929,-0.141,1.87,-0.034,0.0,-0.014
10.022,-0.287,1.946,-0.034,0.001,-0.015
9.869,-0.388,1.92,-0.032,0.018,-0.027
9.649,-0.464,2.061,-0.035,-0.003,-0.006
10.151,-0.206,1.93,-0.036,-0.008,-0.013
10.262,-0.266,1.975,-0.035,-0.002,-0.017
9.883,-0.211,1.958,-0.036,0.0,-0.018
9.708,-0.211,1.815,-0.033,-0.003,-0.02
9.931,-0.215,2.009,-0.033,-0.001,-0.018
10.161,-0.175,1.865,-0.034,0.001,-0.01
10.027,-0.235,1.899,-0.033,0.001,-0.018
9.799,-0.259,1.908,-0.035,0.003,-0.013
9.809,-0.218,1.889,-0.033,-0.001,-0.016
10.048,-0.273,1.975,-0.034,-0.0,-0.014
10.039,-0.204,1.925,-0.034,0.0,-0.015
9.934,-0.242,1.906,-0.033,0.001,-0.018
9.914,-0.316,1.93,-0.034,0.001,-0.013
9.946,-0.192,1.896,-0.034,-0.001,-0.013
10.027,-0.232,1.949,-0.034,0.0,-0.015
9.936,-0.22,1.911,-0.035,0.002,-0.014
9.871,-0.213,1.908,-0.035,0.0,-0.017
9.931,-0.263,1.932,-0.034,0.001,-0.014
9.969,-0.206,1.899,-0.034,0.001,-0.014
9.965,-0.232,1.949,-0.034,0.0,-0.016
9.967,-0.445,1.92,-0.035,0.001,-0.009
9.914,-0.129,1.865,-0.033,-0.002,-0.017
10.18,-0.414,1.927,-0.034,0.001,-0.016
9.898,-0.151,1.887,-0.035,0.002,-0.014
9.955,-0.362,1.927,-0.035,-0.001,-0.018
9.922,-0.163,1.891,-0.037,-0.001,-0.012
9.972,-0.192,1.944,-0.035,-0.001,-0.018
9.977,-0.309,1.927,-0.036,0.0,-0.013
9.828,-0.12,1.887,-0.034,0.001,-0.013
9.938,-0.271,1.915,-0.034,-0.001,-0.015
9.955,-0.225,1.946,-0.035,0.001,-0.012
9.934,-0.105,1.872,-0.034,0.001,-0.017
9.984,-0.311,1.956,-0.034,0.001,-0.017
9.902,-0.141,1.913,-0.029,-0.019,-0.024
9.929,-0.213,1.882,-0.026,-0.007,-0.021
10.022,-0.227,1.87,-0.02,-0.014,-0.023
10.111,-1.358,0.46,-0.011,0.135,0.069
9.888,0.206,3.879,-0.304,0.387,-0.199
10.24,1.245,1.446,0.059,0.414,-0.334
9.421,0.113,2.476,0.788,0.288,-0.256
10.472,-0.335,2.471,0.469,-0.171,-1.641
11.957,2.775,1.966,0.261,-0.233,-1.33
11.073,2.119,2.555,0.171,0.161,0.855
10.211,1.326,2.042,0.339,-0.441,0.565
10.027,0.713,1.951,0.347,-0.876,1.155
9.081,-0.309,1.264,0.124,-0.304,0.543
11.571,0.347,0.939,0.011,-0.009,0.639
9.625,-0.237,1.489,0.058,-0.613,1.238
11.655,-0.654,1.417,0.177,-1.803,1.496
8.95,-1.437,0.651,0.367,-3.683,1.815
7.757,-2.425,-1.353,0.368,-3.862,1.903
7.077,-4.348,-3.419,0.608,-3.584,1.131
4.463,-4.444,-4.784,0.22,-2.21,0.596
6.507,-5.136,-5.902,0.175,-1.342,-0.152
5.246,-4.805,-6.316,0.231,-1.944,0.499
5.365,-5.112,-6.505,0.25,-1.805,0.306
3.211,-5.499,-6.309,0.299,-2.345,0.268
4.398,-6.081,-6.266,0.149,-1.616,0.091
0.371,-5.612,-7.429,-0.149,-0.711,0.768
1.319,-5.581,-8.303,0.064,-0.276,-0.013
1.657,-5.648,-6.656,0.012,-0.491,0.093
1.343,-5.557,-8.231,0.07,0.194,-0.146
1.238,-5.442,-7.171,-0.072,-0.35,0.095
2.143,-5.55,-7.506,0.072,-0.098,-0.228
1.039,-5.55,-7.671,-0.039,-0.38,-0.007
1.465,-5.365,-7.226,-0.108,-0.233,-0.131
1.652,-5.301,-7.106,-0.159,-0.523,-0.254
1.642,-5.624,-7.477,-0.197,-0.531,-0.148
0.809,-5.593,-7.312,-0.326,-0.428,0.161
0.275,-5.442,-8.684,-0.074,-0.229,-0.076
0.448,-5.413,-7.812,-0.273,-0.216,-0.144
0.369,-5.248,-8.435,-0.163,0.49,0.011
0.208,-4.887,-8.801,-0.179,1.909,0.023
3.508,-4.693,-7.626,0.003,2.34,0.37
2.37,-4.963,-7.645,-0.062,2.234,0.036
3.934,-4.719,-6.551,-0.273,2.089,0.116
4.436,-4.932,-7.611,-0.07,1.948,0.048
5.708,-4.791,-6.225,-0.132,2.012,-0.022
6.96,-4.867,-5.564,0.132,2.622,0.015
7.324,-5.385,-4.537,0.117,2.36,-0.106
8.056,-4.786,-3.381,0.103,2.84,0.152
7.144,-4.882,-2.023,0.264,2.698,-0.365
8.827,-4.7,-0.34,0.026,2.576,-0.183
8.442,-4.741,0.488,0.203,2.704,-0.42
9.452,-4.477,2.212,0.261,3.367,-0.35
8.126,-4.817,4.429,0.438,3.34,-0.441
8.411,-4.403,5.423,0.26,2.866,-0.114
5.456,-4.001,5.933,0.385,2.766,0.037
7.025,-3.972,7.841,0.783,3.591,-0.497
4.391,-3.333,9.009,0.502,2.731,0.092
4.372,-3.539,9.756,0.38,1.937,0.027
2.176,-3.268,9.474,0.421,1.507,0.244
1.314,-3.182,9.989,0.45,0.923,0.03
1.757,-2.466,10.403,0.342,0.682,0.12
1.389,-2.349,10.673,0.226,0.762,-0.03
1.755,-2.648,9.819,-0.22,0.502,0.122
1.302,-3.179,10.013,-0.123,-0.276,-0.214
0.215,-2.636,10.12,-0.261,-0.576,0.358
4.142,-3.493,11.384,-0.586,-2.197,0.14
-0.994,-2.856,9.471,-1.078,-3.263,1.136
7.47,-3.807,9.043,-0.828,-3.255,-0.466
3.613,-4.393,7.695,-0.91,-3.295,0.398
7.056,-4.415,6.287,-0.755,-3.265,0.115
7.389,-4.604,5.195,-0.84,-2.654,0.1
9.134,-4.422,3.587,-0.914,-2.296,0.388
7.647,-5.555,1.765,-0.674,-2.37,0.28
8.382,-5.2,0.879,-0.701,-2.833,-0.074
7.52,-5.6,-1.13,-0.437,-2.647,-0.136
8.135,-4.975,-2.224,-0.458,-2.856,0.046
7.796,-5.681,-3.383,-0.235,-3.0,-0.166
5.655,-4.803,-5.607,-0.678,-3.227,0.375
5.993,-5.224,-5.928,-0.167,-3.008,-1.401
4.487,-4.278,-6.95,-0.213,-2.182,-0.123
5.988,-4.59,-6.469,-0.196,-2.216,0.146
1.793,-4.508,-8.308,-0.427,-2.018,0.296
1.578,-4.307,-8.274,-0.298,-1.768,-0.068
2.061,-4.298,-8.059,-0.248,-1.715,-0.349
-0.012,-3.306,-8.669,-0.506,-2.698,0.212
0.431,-4.336,-9.172,0.082,-2.144,-0.617
-1.793,-4.094,-8.135,0.007,-1.001,0.282
-2.473,-4.039,-7.578,0.054,0.048,-0.054
-2.021,-3.9,-8.25,0.194,1.725,-0.117
0.862,-4.652,-9.218,0.556,2.174,0.199
-0.373,-4.372,-7.427,0.853,4.595,0.998
3.072,-5.1,-9.481,0.319,4.742,-0.317
4.899,-5.126,-5.911,0.58,2.495,0.052
5.358,-5.535,-5.945,0.554,3.459,-0.605
6.28,-5.171,-3.213,0.521,3.598,0.293
8.928,-5.54,-2.198,0.369,3.292,-0.168
6.488,-5.466,-1.089,0.494,2.98,0.255
9.479,-5.602,0.733,0.449,2.627,-0.512
6.814,-5.581,0.555,0.356,2.455,0.112
7.992,-5.631,3.33,0.633,3.285,-0.281
9.009,-5.444,4.348,0.629,2.877,0.154
5.806,-5.306,5.677,0.675,2.2,-0.273
6.225,-4.99,6.646,0.78,2.532,-0.14
5.696,-4.702,7.805,0.635,1.677,-0.305
4.604,-4.003,7.896,0.725,2.254,-0.287
4.492,-3.857,9.39,0.707,2.658,-0.118
3.112,-3.503,9.84,0.551,2.615,0.125
1.226,-3.46,10.901,0.06,1.33,0.31
1.288,-3.627,9.467,-0.218,0.566,0.261
0.632,-3.759,9.127,-0.248,-0.127,0.021
0.043,-3.699,9.443,0.015,-0.649,-0.053
2.368,-3.926,9.934,-0.197,-0.67,0.144
0.91,-3.879,9.931,-0.079,-1.158,-0.514
1.724,-4.393,8.531,-0.441,-1.575,-1.149
6.859,-4.149,9.38,-0.481,-4.078,-1.033
4.805,-4.774,5.526,-0.385,-3.489,-1.193
12.486,-2.6,4.808,-0.252,-3.042,-0.051
7.084,-3.74,2.504,0.336,-1.445,-0.594
8.279,-2.552,3.366,0.253,-1.418,0.224
7.939,-2.756,3.9,0.923,-1.145,-0.294
10.039,-2.342,3.915,1.01,-1.125,-0.256
10.082,-2.31,3.663,0.818,-0.909,-0.171
10.235,-2.105,3.965,0.783,-0.638,0.041
10.106,-1.863,2.449,0.996,-0.849,0.282
10.046,-1.678,4.362,0.764,-0.837,0.256
8.456,-1.599,4.705,0.674,-0.152,-0.101
10.625,-1.697,4.975,0.206,-0.318,-0.075
8.401,-2.085,3.201,-0.099,0.123,-0.157
10.817,-2.018,2.904,-0.275,-0.002,-0.144
8.863,-2.114,2.708,-0.401,-0.018,0.014
10.154,-1.994,3.218,-0.574,-0.044,0.033
9.433,-2.045,2.986,-0.619,0.231,-0.105
10.293,-1.676,2.863,-0.69,-0.241,-0.125
9.567,-1.994,2.512,-0.892,-0.29,-0.021
11.198,-2.162,1.595,-1.011,0.198,0.026
9.146,-2.411,1.405,-0.968,-0.28,0.145
10.096,-2.428,1.539,-0.968,0.105,0.239
7.942,-2.638,0.436,-0.916,0.129,0.205
10.058,-2.737,2.442,-0.826,0.398,-0.269
9.807,-3.132,1.767,-0.921,-0.669,-0.09
9.708,-2.512,1.298,-1.212,0.492,0.098
9.026,-3.141,1.223,-1.183,0.359,0.437
8.65,-2.382,0.287,-1.262,0.631,-0.193
9.816,-2.612,1.803,-1.254,0.414,-0.095
8.799,-2.746,-0.443,-1.122,0.058,0.057
10.075,-2.674,-0.333,-1.063,0.056,-0.209
10.209,-2.591,-0.508,-0.737,0.261,-0.346
10.7,-2.485,-0.871,-0.737,0.188,0.042
9.158,-2.351,0.124,-0.492,0.357,-0.175
9.943,-2.416,-0.752,-0.222,0.186,-0.043
10.93,-2.028,-0.711,-0.204,0.331,-0.115
10.266,-2.516,-1.255,0.017,-0.078,0.354
9.752,-2.454,-1.314,0.392,-0.056,0.161
10.475,-2.365,-1.003,0.681,-0.386,0.222
8.633,-2.449,1.075,0.734,-0.627,-0.01
10.791,-2.32,0.773,0.733,-0.497,-0.018
9.072,-2.94,-0.433,0.794,-0.558,0.159
10.487,-3.146,-0.63,1.072,-0.826,0.09
8.203,-3.27,-0.651,1.253,-0.89,-0.021
9.965,-3.072,-0.146,1.292,-0.875,0.057
8.483,-3.227,-0.012,1.293,-0.566,-0.216
8.926,-2.926,-0.357,1.177,-0.39,-0.088
9.596,-2.926,-0.16,1.189,-0.25,-0.201
9.251,-2.95,-0.005,1.044,-0.27,0.185
9.701,-2.856,0.283,1.198,-0.163,-0.703
8.732,-2.581,0.045,1.093,-0.19,0.102
11.305,-2.495,0.716,1.099,-0.185,-0.33
9.708,-2.442,1.53,1.091,-0.402,-0.651
10.384,-2.061,1.439,0.778,-0.296,0.057
10.944,-2.243,1.489,0.534,-0.148,-0.047
9.17,-2.308,0.412,0.469,-0.116,0.08
11.205,-1.901,2.591,0.374,-0.058,-0.226
11.004,-1.776,3.792,-0.251,0.168,0.282
9.596,-2.047,3.06,-0.768,0.428,0.396
9.792,-2.459,1.554,-1.019,0.63,0.158
9.4,-2.703,2.629,-1.228,0.577,0.15
8.054,-2.88,3.819,-1.561,1.076,0.099
8.772,-1.963,1.664,-1.959,1.663,-0.417
10.381,-2.523,2.219,-1.788,1.014,0.044
10.681,-2.923,-0.728,-1.532,0.656,-0.614
8.545,-2.607,0.998,-1.448,0.286,-0.18
10.159,-3.026,1.003,-1.143,0.561,-0.62
10.017,-1.997,2.931,-1.328,0.867,-0.261
10.822,-2.859,0.345,-0.966,0.644,-0.027
8.31,-3.163,1.228,-0.961,-0.5,0.024
10.314,-3.033,-1.08,-0.598,-0.613,-0.446
8.904,-2.89,-0.163,-0.558,-0.233,-0.036
10.731,-2.169,-1.326,-0.307,0.041,-0.342
11.521,-2.227,-2.332,-0.307,-0.145,0.386
10.336,-2.792,-1.034,0.068,-0.354,0.412
9.069,-2.856,-1.319,0.211,-0.448,0.515
9.306,-2.641,-0.637,0.445,-0.261,0.207
11.076,-3.314,0.194,0.695,-0.032,0.329
10.046,-3.563,0.675,0.429,0.095,1.018
8.193,-4.211,-0.637,0.539,0.307,0.697
7.975,-4.511,-0.034,0.768,0.051,0.569
8.011,-4.482,-1.006,1.339,-0.439,0.059
8.215,-4.496,0.261,1.694,-0.808,-0.001
9.692,-3.912,1.638,1.898,-0.891,0.185
8.495,-3.699,3.361,2.016,-0.729,0.066
9.637,-3.73,2.497,1.636,-1.037,0.083
8.622,-3.366,2.164,1.649,-1.162,0.163
9.67,-3.357,2.392,1.654,-1.047,-0.312
8.662,-3.136,2.21,1.444,-0.937,0.004
10.736,-3.01,3.579,1.318,-0.855,-0.327
8.523,-3.273,1.975,0.853,-0.601,-0.26
11.791,-3.077,3.007,0.485,-0.455,0.004
8.102,-3.05,2.002,0.476,-0.287,-0.059
10.467,-2.698,5.08,0.095,0.034,-0.27
8.832,-2.782,4.477,-0.513,0.48,-0.269
10.795,-2.528,3.462,-0.715,0.32,-0.076
11.21,-2.538,2.466,-1.161,0.669,-0.177
10.027,-2.768,2.672,-1.282,0.759,0.392
9.732,-2.78,2.411,-1.476,0.989,0.254
8.622,-3.136,2.523,-1.551,1.056,0.183
8.859,-3.723,1.875,-1.422,0.924,0.019
9.23,-3.481,2.167,-1.518,0.944,-0.123
8.712,-4.005,2.464,-1.269,0.649,-0.081
9.852,-3.723,1.822,-1.405,0.917,-0.387
8.492,-3.776,2.504,-1.072,0.93,-0.535
9.357,-3.917,1.276,-1.039,0.683,-1.02
9.823,-2.89,2.775,-1.052,0.794,-0.353
7.638,-3.934,0.625,-0.896,0.879,-0.397
10.702,-2.813,2.928,-0.963,0.382,-0.464
7.908,-3.124,1.314,-0.767,-0.208,-0.616
10.594,-2.988,0.704,-0.593,0.098,-0.547
10.29,-2.978,1.274,-0.473,0.025,0.018
10.53,-2.871,0.512,-0.276,-0.005,-0.141
10.082,-2.998,0.309,-0.105,-0.181,0.297
9.553,-3.199,-0.081,0.225,-0.063,0.096
9.771,-3.16,0.591,0.508,-0.056,0.13
10.405,-3.01,1.068,0.76,-0.031,0.043
9.378,-3.081,0.886,0.8,-0.153,0.471
9.378,-3.165,1.302,1.169,-0.301,0.207
9.026,-3.05,2.212,1.252,-0.203,0.524
9.191,-3.002,2.811,1.46,-0.341,-0.063
8.842,-2.768,3.488,1.291,-0.505,0.429
8.787,-2.715,3.632,1.397,-0.505,-0.249
8.66,-2.267,3.053,1.324,-0.469,0.285
9.507,-2.112,2.842,1.448,-0.547,-0.052
10.089,-1.822,4.089,1.33,-0.594,-0.085
9.938,-1.58,4.503,1.17,-0.511,0.121
10.506,-1.87,5.162,0.828,-0.375,0.144
9.38,-1.776,5.296,0.63,-0.292,-0.023
8.832,-1.961,7.417,0.087,0.012,0.379
7.238,-1.923,6.337,-0.439,0.378,-0.027
7.724,-2.871,5.598,-0.81,0.266,-0.315
7.458,-2.172,4.508,-1.155,-0.468,-0.528
8.109,-1.75,2.205,-1.18,-0.018,-0.75
10.218,-1.635,1.532,-0.953,-0.164,-0.323
9.416,-1.123,-0.407,-1.057,-0.212,-0.727
9.448,-1.504,1.674,-0.713,-0.162,-0.358
8.437,-1.049,0.223,-0.841,-0.225,-0.788
10.041,-0.567,0.984,-0.911,-0.682,-0.747
9.072,0.335,-0.06,-0.84,-0.504,-1.512
11.159,0.792,0.991,-1.029,-0.148,-0.847
13.319,1.283,0.18,-1.082,0.082,-0.819
12.155,1.279,-1.188,-1.033,-0.118,-0.233
10.087,-1.092,-0.338,-0.457,0.326,-0.017
10.942,0.814,0.369,-0.348,-0.077,-0.058
8.487,1.779,1.209,-0.192,0.655,0.114
7.151,0.757,1.068,-0.05,0.753,0.177
7.092,-1.786,2.004,0.142,0.669,2.948
10.106,-0.194,1.786,-0.035,0.028,0.023
10.135,-1.051,3.797,1.222,-0.149,0.117
9.819,-0.335,1.958,-0.006,-0.252,-0.209
9.991,-0.328,1.935,-0.027,0.017,-0.005
9.938,-0.208,1.839,-0.035,-0.002,-0.013
9.953,0.045,1.901,-0.028,-0.007,-0.026
10.151,-0.364,1.973,-0.033,0.005,-0.012
9.804,-0.158,1.81,-0.035,0.006,-0.012
9.802,-0.256,1.913,-0.033,0.002,-0.02
10.041,-0.316,1.935,-0.036,-0.001,-0.009
9.96,-0.038,1.851,-0.033,0.001,-0.016
10.116,-0.333,1.951,-0.032,0.001,-0.018
10.094,-0.354,2.002,-0.036,0.002,-0.004
9.804,-0.072,1.884,-0.037,-0.006,0.0
9.735,-0.045,1.867,-0.034,0.001,-0.019
9.833,-0.067,1.901,-0.035,0.003,-0.013
9.934,-0.184,1.889,-0.034,0.001,-0.022
9.905,-0.122,1.946,-0.033,0.001,-0.013
9.931,-0.122,1.899,-0.032,0.0,-0.018
10.01,-0.266,1.98,-0.034,0.0,-0.015
9.934,-0.117,1.923,-0.034,0.002,-0.013
9.977,-0.256,1.863,-0.034,0.0,-0.016
9.95,-0.189,1.963,-0.033,0.001,-0.012
9.912,-0.132,1.872,-0.034,0.002,-0.014
9.957,-0.22,1.935,-0.033,0.001,-0.014
9.89,-0.136,1.899,-0.034,0.002,-0.013
9.965,-0.23,1.879,-0.032,0.0,-0.017
9.979,-0.235,2.011,-0.034,0.002,-0.012
9.919,-0.156,1.851,-0.032,0.001,-0.016
9.984,-0.297,1.932,-0.033,0.001,-0.015
9.934,-0.204,1.925,-0.032,0.002,-0.013
9.948,-0.22,1.872,-0.032,0.0,-0.017
9.981,-0.278,1.932,-0.033,0.002,-0.013
9.938,-0.196,1.86,-0.033,0.001,-0.014
9.965,-0.227,1.913,-0.034,0.0,-0.017
9.943,-0.28,1.944,-0.033,0.003,-0.013
9.919,-0.409,2.078,-0.032,0.022,-0.018
9.591,-0.306,1.822,-0.036,0.011,-0.003
9.981,-0.34,1.973,-0.034,-0.01,-0.015
10.094,-0.175,1.896,-0.035,-0.004,-0.011
9.977,-0.136,1.901,-0.034,0.002,-0.016
9.919,-0.299,1.911,-0.034,0.002,-0.016
9.893,-0.151,1.963,-0.035,0.0,-0.013
9.948,-0.235,1.894,-0.033,-0.0,-0.017
10.001,-0.247,1.918,-0.034,0.0,-0.014
9.898,-0.16,1.911,-0.033,-0.0,-0.024
9.888,-0.33,1.966,-0.035,0.0,-0.01
10.017,-0.093,1.776,-0.033,-0.004,-0.019
10.027,-0.213,2.049,-0.034,0.003,-0.018
9.871,-0.18,1.745,-0.034,0.003,-0.015
9.843,-0.244,2.011,-0.033,0.001,-0.015
9.998,-0.266,1.827,-0.034,0.0,-0.012
9.993,-0.194,1.949,-0.033,-0.001,-0.02
9.967,-0.251,1.899,-0.034,0.002,-0.014
9.912,-0.23,1.882,-0.034,0.001,-0.016
9.926,-0.175,1.946,-0.034,-0.0,-0.014
9.967,-0.225,1.86,-0.034,0.001,-0.014
9.922,-0.189,1.925,-0.034,0.001,-0.018
9.9,-0.187,1.903,-0.034,0.002,-0.013
9.931,-0.213,1.918,-0.033,-0.001,-0.018
9.979,-0.215,1.925,-0.034,0.0,-0.015
9.953,-0.158,1.911,-0.033,0.001,-0.016
10.017,-0.287,1.906,-0.033,0.001,-0.015
9.914,-0.163,1.97,-0.034,0.001,-0.014
9.957,-0.239,1.903,-0.033,-0.0,-0.017
9.943,-0.206,1.908,-0.034,-0.0,-0.013
9.953,-0.189,1.954,-0.034,-0.0,-0.017
9.895,-0.187,1.875,-0.034,0.002,-0.01
9.924,-0.151,1.92,-0.033,0.001,-0.017
10.022,-0.299,1.901,-0.034,0.001,-0.011
9.943,-0.115,1.896,-0.034,0.002,-0.013
9.974,-0.299,1.944,-0.033,0.001,-0.017
9.943,-0.237,1.896,-0.035,0.001,-0.01
9.91,-0.144,1.891,-0.033,0.0,-0.017
10.003,-0.299,1.915,-0.034,0.001,-0.015
9.895,-0.139,1.899,-0.034,0.001,-0.012
9.965,-0.23,1.889,-0.034,0.0,-0.017
9.991,-0.294,1.913,-0.034,0.001,-0.011
9.924,-0.134,1.882,-0.033,0.001,-0.017
9.998,-0.33,1.951,-0.034,0.001,-0.015
9.9,-0.156,1.867,-0.034,0.001,-0.013
9.948,-0.218,1.896,-0.033,-0.0,-0.018
10.027,-0.294,1.896,-0.034,0.001,-0.013
9.936,-0.127,1.87,-0.034,0.0,-0.017
9.969,-0.29,1.935,-0.034,0.0,-0.016
9.931,-0.23,1.879,-0.034,0.002,-0.011
9.914,-0.144,1.911,-0.034,-0.001,-0.017
9.993,-0.294,1.908,-0.034,0.0,-0.014
9.914,-0.16,1.882,-0.034,0.002,-0.014
9.898,-0.249,1.915,-0.034,-0.001,-0.02
