ax,ay,az,gx,gy,gz
3.278,-0.68,-9.41,-0.594,0.003,-0.278
3.261,-0.442,-9.449,-0.649,0.0,-0.309
3.298,-0.137,-9.414,-0.739,0.031,-0.365
3.321,0.17,-9.377,-0.878,0.031,-0.433
3.263,0.549,-9.4,-1.057,-0.034,-0.514
3.225,0.879,-9.449,-1.241,-0.076,-0.61
3.188,1.521,-9.278,-1.392,-0.092,-0.725
2.97,2.149,-9.215,-1.539,-0.125,-0.832
2.927,2.787,-8.986,-1.598,-0.077,-0.914
2.804,3.508,-8.665,-1.588,0.043,-0.959
2.621,4.342,-8.279,-1.573,0.055,-0.965
2.424,4.95,-8.039,-1.551,0.068,-0.906
2.317,5.49,-7.559,-1.501,0.033,-0.808
2.096,6.106,-7.218,-1.457,-0.058,-0.707
2.15,6.633,-6.85,-1.383,-0.096,-0.648
1.752,7.06,-6.418,-1.276,-0.128,-0.643
1.725,7.535,-6.093,-1.147,-0.105,-0.697
1.58,8.103,-5.335,-0.979,-0.045,-0.789
1.513,8.864,-4.936,-0.824,0.258,-0.884
1.785,9.362,-4.664,-0.653,0.85,-0.853
2.581,9.532,-4.707,-0.409,1.64,-0.661
2.841,9.096,-4.754,-0.202,2.117,-0.411
3.113,8.565,-5.502,-0.057,2.545,-0.125
3.33,7.668,-5.335,-0.11,2.75,0.135
3.984,7.339,-5.341,-0.339,2.24,0.279
3.558,7.383,-5.409,-0.669,1.175,0.206
3.41,7.674,-5.236,-0.884,0.569,0.066
3.486,8.064,-4.968,-0.945,0.284,-0.117
3.539,8.445,-4.768,-0.793,0.41,-0.32
3.471,8.404,-4.036,-0.486,0.915,-0.487
4.241,8.738,-2.877,-0.157,1.6,-0.588
5.144,8.902,-1.528,-0.055,1.589,-0.594
5.686,8.757,-0.62,-0.22,1.002,-0.462
6.02,8.858,-0.528,-0.409,0.042,-0.189
5.562,8.943,-0.62,-0.658,-0.815,0.134
5.289,8.647,-0.98,-0.957,-1.345,0.503
4.965,8.84,-1.814,-1.165,-1.402,0.792
5.698,9.336,-2.552,-1.258,-1.788,0.921
4.669,9.903,-3.455,-1.356,-3.171,0.976
3.237,10.082,-3.602,-1.157,-3.744,1.051
1.989,10.066,-3.881,-0.865,-3.385,0.936
1.44,9.595,-3.722,-0.47,-2.411,0.774
0.619,9.036,-3.139,-0.112,-1.121,0.621
1.684,8.207,-2.352,0.156,0.792,0.443
3.018,7.805,-2.677,0.089,1.604,0.144
4.189,7.637,-2.58,-0.034,1.446,-0.096
4.472,7.936,-2.679,-0.199,0.782,-0.358
4.281,8.223,-2.849,-0.254,0.516,-0.583
4.174,8.795,-2.823,-0.177,0.676,-0.769
4.288,9.314,-2.464,-0.002,1.134,-0.865
4.535,9.622,-2.031,0.178,1.538,-0.779
5.025,9.511,-1.402,0.236,1.594,-0.549
5.306,9.561,-0.961,0.152,1.309,-0.334
5.672,9.276,-0.565,0.011,0.858,-0.187
5.479,9.022,-0.585,-0.142,0.468,-0.194
5.058,8.994,-0.844,-0.205,0.495,-0.359
4.835,9.254,-1.233,-0.129,0.948,-0.606
4.966,9.328,-1.367,0.037,1.538,-0.8
5.041,9.436,-1.426,0.207,1.961,-0.912
5.475,9.479,-1.183,0.327,1.993,-0.874
5.814,9.499,-0.999,0.365,1.574,-0.725
5.68,9.563,-1.0,0.391,1.081,-0.555
5.433,9.477,-0.989,0.453,0.817,-0.406
5.041,9.536,-0.914,0.52,0.837,-0.325
4.222,9.547,-0.767,0.581,1.301,-0.392
4.338,9.435,-0.726,0.556,1.713,-0.448
4.313,9.377,-0.817,0.381,1.821,-0.401
3.948,9.621,-1.073,0.142,1.85,-0.32
4.064,9.371,-1.444,-0.102,1.668,-0.236
4.599,9.183,-1.869,-0.326,1.114,-0.067
4.505,9.099,-2.227,-0.454,0.642,0.088
4.698,8.751,-2.754,-0.479,0.21,0.136
4.868,8.367,-3.397,-0.385,0.041,0.151
4.799,8.408,-3.57,-0.212,0.05,0.13
4.782,8.565,-3.448,0.006,0.221,0.067
4.635,8.662,-3.216,0.223,0.442,-0.044
4.431,8.893,-2.736,0.456,0.887,-0.142
4.573,8.968,-2.004,0.607,1.1,-0.236
4.618,9.067,-1.579,0.669,1.298,-0.286
4.888,9.081,-1.35,0.653,1.443,-0.323
4.289,9.659,-0.62,0.369,-0.134,-0.348
3.742,9.065,0.21,0.105,-1.184,-0.082
3.709,8.909,-0.212,-0.134,-1.444,0.026
3.439,8.846,-0.518,-0.379,-1.221,0.113
3.218,9.006,-1.007,-0.639,-0.847,0.145
4.253,8.509,-2.467,-0.616,1.002,0.213
5.289,9.026,-3.618,-0.56,1.987,0.025
5.713,9.087,-3.267,-0.501,1.921,-0.039
5.984,9.058,-3.185,-0.393,1.308,-0.122
6.142,9.005,-3.085,-0.184,0.723,-0.127
5.939,8.921,-2.399,0.014,0.411,-0.16
5.594,8.898,-1.885,0.115,0.387,-0.219
5.519,8.936,-1.654,0.132,0.44,-0.271
5.733,8.927,-1.368,0.096,0.371,-0.313
5.828,8.719,-1.041,-0.01,0.076,-0.378
5.863,8.69,-0.915,-0.155,-0.33,-0.465
5.968,8.774,-1.009,-0.244,-0.722,-0.547
5.888,8.964,-1.1,-0.26,-0.986,-0.583
5.768,9.15,-1.177,-0.229,-0.999,-0.533
5.674,9.076,-1.214,-0.198,-0.853,-0.357
5.665,8.774,-1.224,-0.204,-0.76,-0.06
5.631,8.835,-1.176,-0.245,-0.803,0.289
5.537,9.297,-1.224,-0.285,-0.902,0.631
5.876,9.52,-1.209,-0.314,-1.429,0.96
4.813,10.046,-1.443,-0.331,-2.299,1.172
3.62,10.507,-1.946,-0.277,-2.595,1.323
2.692,10.361,-2.379,-0.206,-2.482,1.381
2.078,9.455,-2.536,-0.229,-2.219,1.289
1.19,8.695,-2.792,-0.322,-1.481,1.04
1.916,7.981,-2.827,-0.44,-0.41,0.737
2.916,7.666,-2.698,-0.575,0.331,0.367
4.031,7.669,-2.662,-0.671,0.807,0.018
4.774,7.795,-2.558,-0.717,0.96,-0.246
5.687,8.12,-2.421,-0.697,0.899,-0.375
6.087,8.328,-2.152,-0.684,0.355,-0.455
5.924,8.437,-1.922,-0.669,-0.272,-0.495
5.399,8.52,-1.767,-0.674,-0.622,-0.518
5.297,8.851,-1.77,-0.643,-0.568,-0.484
5.129,9.415,-1.873,-0.617,-0.545,-0.487
5.143,9.643,-1.998,-0.497,-0.14,-0.406
5.321,9.831,-1.952,-0.411,0.085,-0.276
5.464,10.05,-1.943,-0.358,-0.076,-0.104
5.077,10.016,-1.975,-0.299,-0.602,0.096
4.389,9.72,-1.924,-0.184,-0.8,0.333
4.087,9.855,-1.936,-0.06,-0.754,0.483
3.954,9.94,-1.86,0.132,-0.507,0.533
3.875,9.803,-1.629,0.34,-0.125,0.525
4.061,9.726,-1.462,0.516,0.465,0.497
4.306,9.438,-1.264,0.611,0.834,0.462
4.297,8.987,-1.076,0.633,1.008,0.434
4.321,8.495,-1.014,0.601,1.105,0.341
4.426,8.196,-0.988,0.568,1.207,0.108
4.571,8.291,-0.954,0.539,1.257,-0.332
4.796,8.735,-1.015,0.514,1.419,-0.951
5.16,8.792,-1.077,0.478,1.607,-1.508
5.588,9.35,-1.327,0.404,1.461,-1.82
5.484,10.036,-1.417,0.343,1.2,-1.794
5.01,9.991,-1.479,0.306,1.295,-1.436
4.913,9.556,-1.583,0.274,1.459,-0.846
4.954,9.58,-1.885,0.26,1.328,-0.329
4.512,8.988,-2.35,0.296,1.312,-0.047
4.328,8.307,-2.875,0.334,1.49,-0.048
4.595,8.169,-3.19,0.361,1.411,-0.244
4.477,8.272,-3.31,0.375,1.146,-0.504
3.993,8.356,-3.174,0.352,1.163,-0.696
4.037,8.59,-2.715,0.252,1.318,-0.787
4.307,8.71,-2.486,0.105,1.305,-0.769
4.364,8.601,-2.608,-0.057,1.212,-0.656
4.521,8.628,-2.878,-0.191,1.178,-0.501
4.902,8.804,-3.16,-0.204,1.238,-0.353
5.276,8.554,-3.259,-0.135,1.232,-0.172
5.414,8.604,-3.276,-0.051,1.144,0.002
5.63,8.851,-3.022,0.041,0.994,0.12
5.629,8.859,-2.572,0.122,0.771,0.216
5.474,8.786,-2.164,0.125,0.399,0.284
5.067,9.147,-1.838,0.113,0.202,0.295
4.876,9.201,-1.444,0.109,0.24,0.271
4.817,9.118,-1.151,0.081,0.338,0.209
4.866,9.094,-0.986,0.031,0.411,0.063
4.868,8.927,-0.836,-0.035,0.512,-0.118
5.037,8.831,-0.763,-0.124,0.566,-0.3
5.223,8.893,-0.732,-0.21,0.498,-0.485
5.243,8.992,-0.803,-0.266,0.422,-0.644
5.234,9.047,-0.938,-0.288,0.433,-0.733
5.364,9.508,-1.05,-0.277,0.458,-0.764
5.39,9.651,-1.155,-0.229,0.485,-0.733
5.365,9.602,-1.279,-0.182,0.511,-0.624
5.37,9.592,-1.38,-0.134,0.497,-0.472
5.33,9.525,-1.439,-0.087,0.472,-0.326
5.281,9.101,-1.499,-0.058,0.404,-0.196
5.215,8.97,-1.549,-0.05,0.247,-0.084
5.082,8.973,-1.58,-0.032,0.108,0.009
4.951,8.953,-1.585,-0.019,0.003,0.107
4.714,9.001,-1.63,-0.018,-0.141,0.227
4.416,9.133,-1.653,-0.02,-0.183,0.373
4.313,9.247,-1.636,-0.03,-0.118,0.502
4.23,9.232,-1.685,-0.095,-0.113,0.587
4.15,9.123,-1.836,-0.201,-0.213,0.625
4.151,9.014,-1.936,-0.309,-0.361,0.591
4.042,8.98,-2.147,-0.377,-0.498,0.479
3.879,8.921,-2.408,-0.387,-0.541,0.317
3.81,8.917,-2.55,-0.307,-0.432,0.144
3.802,8.985,-2.518,-0.159,-0.163,-0.026
3.877,9.036,-2.432,0.006,0.223,-0.158
4.126,9.022,-2.229,0.146,0.558,-0.241
4.322,9.084,-1.945,0.243,0.774,-0.282
4.494,9.21,-1.681,0.292,0.916,-0.308
4.606,9.257,-1.486,0.314,1.014,-0.319
4.624,9.243,-1.282,0.307,1.083,-0.312
4.618,9.203,-1.115,0.276,1.193,-0.32
4.671,9.005,-0.943,0.214,1.309,-0.377
4.832,8.93,-0.845,0.111,1.369,-0.528
5.175,9.111,-0.905,-0.015,1.341,-0.805
5.607,9.233,-0.963,-0.13,1.157,-1.148
6.019,9.262,-0.976,-0.251,0.704,-1.443
6.07,9.507,-1.181,-0.345,0.258,-1.585
5.981,9.572,-1.352,-0.376,-0.0,-1.523
5.872,9.402,-1.374,-0.354,-0.117,-1.249
5.78,9.292,-1.409,-0.306,-0.141,-0.837
5.616,9.35,-1.514,-0.221,-0.016,-0.373
5.684,9.34,-1.467,-0.124,0.066,0.071
5.74,9.35,-1.357,-0.043,-0.032,0.486
5.619,9.446,-1.249,0.004,-0.244,0.853
5.453,9.602,-1.171,0.035,-0.455,1.143
5.301,9.651,-1.014,0.059,-0.638,1.331
5.159,9.578,-0.837,0.067,-0.792,1.404
5.065,9.473,-0.626,0.048,-0.9,1.356
4.977,9.361,-0.343,-0.022,-0.936,1.193
4.85,8.905,-0.04,-0.181,-0.86,0.976
4.968,8.746,0.149,-0.464,-0.809,0.731
5.22,8.937,0.27,-0.829,-0.904,0.451
5.324,9.101,0.265,-1.247,-1.092,0.203
5.175,9.01,0.088,-1.699,-1.277,0.062
6.199,9.279,-3.448,-1.855,-1.638,0.076
5.949,9.116,-4.753,-1.803,-2.053,0.271
5.686,8.717,-4.926,-1.64,-2.19,0.495
5.554,8.177,-4.913,-1.409,-2.173,0.597
5.718,7.844,-4.843,-1.097,-2.252,0.518
4.819,7.708,-1.683,-0.965,-2.215,0.211
4.922,7.913,-0.635,-0.882,-1.982,-0.291
4.943,8.242,-0.699,-0.8,-1.728,-0.711
4.97,8.722,-0.939,-0.715,-1.421,-0.868
5.119,9.589,-1.236,-0.66,-1.03,-0.733
5.213,10.123,-1.402,-0.613,-0.642,-0.383
5.226,10.061,-1.662,-0.589,-0.445,0.094
4.951,9.931,-2.314,-0.571,-0.692,0.505
4.183,9.783,-2.64,-0.488,-0.815,0.726
3.895,9.119,-2.518,-0.376,-0.622,0.768
4.192,9.01,-2.357,-0.317,-0.647,0.597
4.564,9.344,-2.11,-0.241,-0.866,0.272
4.756,9.278,-1.349,-0.176,-0.809,0.011
5.284,9.228,-0.942,-0.178,-0.788,-0.077
5.295,9.424,-0.924,-0.173,-0.932,-0.043
4.781,9.121,-0.787,-0.137,-0.748,0.146
4.409,8.623,-0.688,-0.156,-0.259,0.39
4.564,8.424,-0.711,-0.195,0.191,0.512
4.882,8.391,-0.666,-0.235,0.375,0.413
5.009,8.306,-0.591,-0.299,0.412,0.139
5.185,8.403,-0.757,-0.419,0.354,-0.229
5.492,9.041,-1.74,-0.518,0.235,-0.547
5.84,9.593,-2.326,-0.476,0.189,-0.76
5.748,9.409,-2.31,-0.452,0.229,-0.833
6.237,9.22,-2.715,-0.419,0.109,-0.751
6.764,9.22,-2.834,-0.235,-0.122,-0.497
6.631,8.888,-1.847,-0.102,-0.69,-0.247
6.187,8.982,-1.303,-0.125,-1.199,0.009
6.236,9.447,-1.332,-0.137,-1.591,0.32
5.778,9.639,-0.892,-0.171,-1.843,0.626
5.167,9.493,-0.513,-0.335,-2.045,0.821
5.03,9.381,-0.433,-0.477,-1.872,0.952
5.134,8.943,-0.317,-0.618,-1.789,0.989
5.146,8.674,-0.216,-0.77,-1.875,0.903
5.111,8.524,-0.185,-0.914,-1.96,0.75
5.191,8.542,-0.238,-1.045,-2.03,0.579
5.406,8.951,-0.389,-1.13,-2.158,0.416
5.406,9.202,-0.488,-1.122,-2.277,0.356
5.187,9.487,-0.651,-1.086,-2.217,0.42
5.254,9.775,-0.749,-1.027,-2.064,0.553
5.291,9.991,-0.731,-0.976,-1.96,0.687
5.175,9.492,-0.673,-0.959,-1.933,0.844
5.248,9.433,-0.636,-1.0,-2.024,0.918
5.548,9.578,-0.578,-0.964,-2.323,0.832
5.287,9.561,-0.511,-0.833,-2.544,0.653
4.831,9.249,-0.538,-0.647,-2.361,0.498
4.644,9.217,-0.526,-0.464,-1.852,0.359
4.674,8.927,-0.495,-0.31,-1.234,0.247
4.765,8.411,-0.374,-0.266,-0.749,0.178
5.071,8.484,-0.217,-0.364,-0.507,0.096
5.52,9.271,-0.178,-0.574,-0.497,-0.109
5.912,9.03,-0.364,-0.824,-0.701,-0.246
6.292,8.874,-0.523,-1.096,-1.353,-0.196
6.365,9.519,-0.732,-1.278,-2.196,0.045
5.849,9.77,-1.058,-1.26,-2.816,0.37
5.319,9.279,-1.409,-1.052,-3.186,0.808
4.271,10.104,-1.627,-0.815,-3.569,1.115
3.3,10.765,-1.917,-0.481,-3.031,1.242
2.993,10.294,-1.917,-0.209,-1.872,1.213
3.227,9.724,-1.774,-0.133,-0.926,1.102
3.852,9.214,-1.393,-0.269,-0.628,0.93
4.567,8.556,-0.971,-0.434,-0.396,0.739
5.066,8.007,-0.565,-0.709,-0.707,0.474
5.157,7.921,-0.481,-0.987,-1.285,0.18
5.285,7.962,-0.551,-1.218,-1.776,-0.053
5.086,8.457,-0.743,-1.348,-1.898,-0.199
5.028,9.106,-1.357,-1.362,-1.899,-0.261
4.171,9.435,-2.307,-1.245,-2.084,-0.322
2.814,9.77,-3.138,-1.032,-1.83,-0.368
2.74,10.406,-3.679,-0.74,-1.418,-0.269
2.345,10.886,-3.923,-0.309,-0.793,-0.049
2.157,10.56,-3.341,0.13,0.036,0.301
2.92,10.361,-2.423,0.466,1.037,0.816
4.266,10.453,-1.733,0.715,1.587,1.295
4.561,10.374,-1.335,0.902,1.773,1.472
4.736,9.756,-1.116,0.968,1.616,1.436
4.661,9.37,-1.244,0.941,1.276,1.233
4.439,9.167,-1.343,0.936,1.101,0.873
4.199,8.55,-1.299,0.955,1.016,0.417
3.85,7.876,-1.194,0.992,1.204,-0.078
3.917,7.803,-1.09,1.057,1.578,-0.687
4.277,8.294,-0.916,1.179,2.056,-1.417
4.739,8.956,-0.768,1.361,2.447,-2.16
5.177,10.138,-0.456,1.548,2.709,-2.769
5.547,12.114,-0.095,1.704,3.021,-3.172
5.828,12.342,0.359,1.771,3.473,-3.119
6.071,12.096,0.371,1.751,3.484,-2.649
6.015,12.047,0.681,1.664,3.244,-1.902
5.729,11.612,0.969,1.508,3.074,-1.054
5.422,9.802,0.894,1.274,2.868,-0.2
5.281,9.26,0.497,1.018,2.405,0.344
5.039,8.699,0.506,0.736,2.118,0.505
4.907,7.67,0.144,0.385,1.947,0.297
4.974,6.789,-0.53,0.024,1.661,-0.193
5.054,6.749,-0.979,-0.29,1.284,-0.879
4.924,7.546,-1.353,-0.498,1.188,-1.617
5.57,9.273,-2.036,-0.501,1.463,-2.226
5.765,10.247,-2.123,-0.362,1.727,-2.505
5.749,10.651,-1.969,-0.28,1.95,-2.38
5.984,11.228,-1.938,-0.167,2.253,-1.944
6.439,10.881,-1.763,-0.04,2.252,-1.324
5.875,9.628,-1.286,-0.017,1.854,-0.604
5.651,9.5,-1.29,-0.028,1.639,0.03
5.665,9.87,-1.39,0.086,1.609,0.48
5.493,9.606,-1.296,0.192,1.49,0.826
5.263,9.616,-1.296,0.204,1.235,1.085
4.875,9.993,-1.386,0.209,0.964,1.234
4.629,9.826,-1.525,0.194,0.606,1.253
4.163,9.259,-1.661,0.203,0.38,1.116
3.841,8.791,-1.797,0.232,0.297,0.754
3.579,8.718,-1.851,0.354,0.488,0.211
3.814,8.843,-1.801,0.527,0.919,-0.487
3.993,8.908,-1.509,0.746,1.551,-1.111
4.412,9.109,-1.202,0.881,2.089,-1.499
4.965,9.724,-1.025,0.933,2.344,-1.597
5.345,9.782,-0.963,0.895,2.257,-1.432
5.445,9.449,-1.207,0.785,2.052,-0.989
5.713,9.518,-1.755,0.658,1.85,-0.473
6.214,9.406,-2.461,0.611,1.69,0.026
6.832,8.627,-3.113,0.643,1.688,0.534
7.916,7.957,-3.594,0.713,1.677,1.087
9.356,7.646,-3.732,0.756,1.543,1.6
10.762,7.128,-3.804,0.8,1.191,2.115
11.33,6.46,-3.609,0.79,0.774,2.662
11.612,5.768,-3.414,0.743,0.438,3.118
11.368,4.777,-3.179,0.655,0.286,3.406
11.05,3.17,-2.883,0.541,0.22,3.59
10.223,1.38,-2.593,0.351,0.018,3.604
9.464,-0.153,-2.398,0.178,-0.186,3.405
8.08,-1.475,-2.121,0.032,-0.34,3.001
7.047,-2.5,-1.971,-0.063,-0.358,2.434
6.058,-3.188,-1.952,-0.086,-0.311,1.729
5.652,-3.643,-1.94,-0.085,-0.031,0.964
5.905,-4.13,-2.146,-0.101,0.256,0.214
7.151,-4.554,-2.393,-0.094,0.415,-0.38
8.235,-4.921,-2.743,-0.076,0.349,-0.785
8.988,-5.144,-2.848,-0.022,0.231,-1.038
9.083,-5.067,-2.63,-0.03,-0.016,-1.237
9.138,-4.522,-2.276,-0.079,-0.053,-1.433
8.904,-3.814,-1.957,-0.202,0.053,-1.644
9.21,-2.737,-1.913,-0.263,0.29,-1.841
9.632,-1.966,-1.853,-0.301,0.552,-1.976
10.626,-1.461,-1.856,-0.281,1.039,-1.968
12.115,-0.942,-2.061,-0.163,1.272,-1.793
13.173,-0.559,-2.032,0.021,0.948,-1.447
12.976,-0.315,-1.579,0.11,0.664,-1.051
13.262,0.093,-1.294,0.153,0.54,-0.66
13.512,0.551,-1.039,0.224,0.163,-0.304
12.67,0.7,-0.548,0.24,-0.276,-0.019
12.322,0.906,-0.179,0.246,-0.265,0.118
12.491,1.116,0.194,0.264,-0.378,0.193
11.736,1.149,0.321,0.265,-0.534,0.238
10.836,1.104,0.282,0.294,-0.427,0.234
10.528,1.122,0.368,0.377,-0.236,0.154
10.062,1.115,0.411,0.472,-0.087,0.03
9.911,0.941,0.267,0.54,0.146,-0.123
10.262,0.82,0.203,0.563,0.315,-0.279
10.771,0.713,0.125,0.505,0.345,-0.417
11.202,0.597,-0.134,0.404,0.329,-0.498
11.607,0.449,-0.384,0.307,0.301,-0.499
12.241,0.463,-0.499,0.273,0.317,-0.462
13.239,0.72,-0.506,0.318,0.228,-0.411
13.119,0.847,-0.552,0.373,-0.064,-0.282
12.391,0.875,-0.644,0.425,-0.166,-0.1
11.845,0.96,-0.641,0.431,-0.323,0.112
11.055,1.045,-0.598,0.425,-0.536,0.252
10.527,1.255,-0.526,0.434,-0.525,0.323
10.529,1.429,-0.544,0.413,-0.396,0.321
10.587,1.496,-0.477,0.349,-0.23,0.246
10.592,1.48,-0.432,0.251,-0.011,0.072
10.459,1.394,-0.445,0.084,0.136,-0.113
9.939,1.102,-0.636,-0.165,0.165,-0.268
9.792,0.94,-0.839,-0.369,0.328,-0.4
10.346,0.861,-0.94,-0.513,0.353,-0.487
11.024,0.914,-1.017,-0.624,0.303,-0.5
11.859,1.061,-1.203,-0.685,0.284,-0.374
12.203,1.069,-1.348,-0.673,0.272,-0.191
13.04,1.158,-1.239,-0.59,0.277,-0.018
12.927,1.279,-1.179,-0.521,-0.019,0.149
12.333,1.364,-1.168,-0.396,-0.133,0.296
11.561,1.269,-0.94,-0.271,-0.201,0.356
11.143,1.072,-0.565,-0.206,-0.261,0.333
10.831,1.006,-0.188,-0.209,-0.44,0.24
11.13,1.116,0.217,-0.217,-0.495,0.135
11.081,1.062,0.433,-0.263,-0.471,0.04
11.175,0.987,0.622,-0.328,-0.318,-0.035
11.278,1.134,0.783,-0.41,-0.314,-0.076
10.806,1.051,0.476,-0.479,-0.254,-0.045
10.535,0.8,-0.03,-0.534,-0.112,-0.021
10.944,0.774,-0.355,-0.571,-0.143,-0.015
11.085,0.887,-0.726,-0.558,-0.357,-0.039
10.962,0.865,-1.16,-0.459,-0.288,-0.089
11.453,1.021,-1.153,-0.331,-0.15,-0.173
11.898,1.355,-0.94,-0.203,-0.003,-0.266
11.614,1.389,-0.835,-0.133,0.14,-0.284
11.462,1.327,-0.82,-0.147,0.351,-0.247
11.614,1.435,-0.686,-0.24,0.266,-0.162
11.36,1.653,-0.743,-0.342,0.088,-0.046
11.106,1.838,-0.901,-0.408,-0.015,0.058
10.997,2.104,-1.109,-0.41,-0.016,0.068
10.665,2.237,-1.366,-0.343,0.084,0.026
10.452,2.15,-1.673,-0.25,0.348,-0.062
10.346,1.846,-1.748,-0.198,0.532,-0.173
10.145,1.504,-1.824,-0.218,0.604,-0.282
10.417,1.259,-1.631,-0.245,0.658,-0.336
10.972,1.124,-1.16,-0.308,0.554,-0.328
11.508,1.081,-0.745,-0.415,0.263,-0.267
12.374,1.398,-0.365,-0.498,0.038,-0.186
12.615,1.576,-0.029,-0.564,-0.353,-0.036
12.321,1.636,-0.012,-0.585,-0.585,0.072
12.193,1.76,0.055,-0.55,-0.659,0.108
11.613,1.725,0.112,-0.503,-0.656,0.115
10.758,1.31,0.117,-0.501,-0.568,0.085
10.906,1.221,0.357,-0.514,-0.362,-0.004
11.184,1.27,0.686,-0.601,-0.473,-0.044
10.957,1.237,0.751,-0.693,-0.533,-0.05
11.16,1.367,0.899,-0.739,-0.484,-0.063
11.074,1.579,0.98,-0.734,-0.489,-0.043
10.758,1.561,0.878,-0.699,-0.332,-0.004
10.745,1.543,0.82,-0.662,-0.062,0.011
10.958,1.58,0.765,-0.679,0.072,0.014
11.02,1.611,0.597,-0.741,0.206,-0.002
11.433,1.659,0.455,-0.86,0.364,-0.049
11.905,1.858,0.234,-1.069,0.375,-0.148
12.046,1.98,-0.231,-1.357,0.232,-0.196
11.799,2.068,-0.547,-1.68,-0.031,-0.213
11.772,2.256,-0.683,-1.953,-0.335,-0.218
11.295,2.466,-0.803,-2.112,-0.756,-0.175
10.754,2.553,-0.82,-2.075,-0.968,-0.063
10.824,2.823,-0.538,-1.848,-1.007,-0.002
11.097,3.048,-0.401,-1.504,-0.974,0.061
10.719,3.105,-0.507,-1.13,-0.814,0.155
10.545,2.953,-0.594,-0.795,-0.397,0.207
10.458,2.748,-0.61,-0.585,-0.055,0.191
10.237,2.431,-0.666,-0.562,0.181,0.135
10.297,2.141,-0.728,-0.727,0.385,0.057
10.705,1.883,-0.669,-1.076,0.361,-0.016
11.312,1.898,-0.589,-1.554,0.135,-0.103
12.053,2.198,-0.447,-2.061,-0.364,-0.132
11.602,2.297,-0.436,-2.467,-0.881,-0.059
11.151,2.347,-0.449,-2.652,-1.065,-0.003
10.938,2.368,-0.309,-2.621,-1.165,-0.018
10.821,2.33,-0.211,-2.391,-1.268,-0.036
10.655,2.203,-0.241,-2.007,-1.226,-0.011
10.951,2.217,-0.288,-1.52,-0.946,-0.001
11.244,2.187,-0.157,-1.019,-0.651,0.041
11.615,2.267,-0.01,-0.552,-0.343,0.133
11.667,2.32,0.136,-0.166,-0.089,0.283
11.251,2.153,0.256,0.104,0.291,0.37
11.452,1.981,0.586,0.213,0.551,0.385
11.585,1.909,0.829,0.133,0.429,0.364
11.373,1.837,0.874,-0.082,0.244,0.336
11.208,1.754,0.887,-0.373,0.131,0.281
11.34,1.814,0.951,-0.679,-0.032,0.201
11.26,1.931,0.902,-0.941,-0.201,0.141
10.872,1.896,0.753,-1.145,-0.162,0.13
10.708,1.826,0.659,-1.31,-0.058,0.13
10.746,1.893,0.567,-1.452,0.028,0.116
11.155,2.164,0.401,-1.591,0.114,0.126
11.435,2.431,0.078,-1.778,0.161,0.139
11.811,2.716,-1.155,-2.001,0.081,0.109
11.829,2.894,-1.746,-2.234,-0.048,0.05
11.514,2.983,-1.864,-2.399,-0.219,-0.049
10.832,2.803,-2.092,-2.441,-0.442,-0.189
10.353,2.609,-2.229,-2.322,-0.662,-0.325
10.169,2.489,-1.348,-2.013,-0.529,-0.408
10.317,2.429,-1.075,-1.567,-0.297,-0.447
10.722,2.164,-1.305,-1.1,-0.044,-0.393
10.998,1.869,-1.292,-0.703,0.211,-0.267
11.354,1.646,-1.072,-0.424,0.384,-0.125
11.572,1.534,-0.879,-0.276,0.231,0.005
11.742,1.482,-0.696,-0.223,0.065,0.132
11.925,1.599,-0.352,-0.236,-0.026,0.22
12.243,1.818,-0.025,-0.296,-0.174,0.3
12.047,1.975,0.122,-0.349,-0.289,0.389
11.738,2.117,0.278,-0.372,-0.265,0.454
11.415,2.174,0.417,-0.392,-0.285,0.497
10.958,2.205,0.455,-0.415,-0.351,0.499
10.744,2.328,0.508,-0.418,-0.339,0.415
10.842,2.453,0.59,-0.422,-0.295,0.286
10.744,2.44,0.583,-0.446,-0.259,0.142
10.652,2.433,0.562,-0.458,-0.196,-0.032
10.46,2.431,0.508,-0.443,-0.157,-0.201
9.98,2.261,0.356,-0.399,-0.03,-0.348
9.928,2.108,0.257,-0.324,0.18,-0.502
10.37,2.057,0.243,-0.242,0.242,-0.648
10.782,2.086,0.155,-0.145,0.266,-0.742
11.282,2.041,0.014,-0.024,0.392,-0.763
11.982,1.927,-0.199,0.107,0.48,-0.695
12.929,2.037,-0.231,0.266,0.426,-0.559
12.997,2.064,-0.257,0.368,0.09,-0.339
12.483,2.048,-0.499,0.458,-0.094,-0.08
12.027,2.121,-0.547,0.528,-0.256,0.191
11.469,2.361,-0.389,0.579,-0.454,0.415
10.862,2.671,-0.437,0.598,-0.573,0.57
10.792,3.133,-0.612,0.643,-0.373,0.628
10.618,3.249,-0.583,0.632,-0.029,0.607
10.405,3.045,-0.748,0.514,0.307,0.486
10.29,2.699,-0.851,0.28,0.45,0.269
9.935,2.184,-0.84,-0.046,0.409,0.001
9.76,1.702,-0.865,-0.358,0.406,-0.252
10.17,1.517,-0.77,-0.608,0.211,-0.463
10.541,1.537,-0.666,-0.751,0.034,-0.596
10.938,1.561,-0.739,-0.78,0.065,-0.606
11.548,1.544,-0.933,-0.717,0.192,-0.482
12.268,1.552,-1.05,-0.591,0.213,-0.284
12.981,1.696,-1.002,-0.431,0.039,-0.071
13.056,1.869,-1.102,-0.243,-0.167,0.193
13.039,2.005,-1.1,-0.052,-0.257,0.47
13.221,2.065,-1.09,0.111,-0.342,0.796
12.822,1.83,-0.915,0.187,-0.502,1.135
12.535,1.285,-0.888,0.19,-0.507,1.476
12.776,0.587,-0.672,0.137,-0.536,1.739
12.71,-0.237,-0.491,0.065,-0.654,1.971
11.843,-1.239,-0.324,-0.026,-0.761,2.1
11.201,-2.116,-0.365,-0.082,-0.692,2.128
10.437,-2.932,-0.465,-0.081,-0.686,2.088
9.501,-3.78,-0.652,-0.058,-0.719,2.029
8.503,-4.587,-1.008,-0.028,-0.782,1.933
7.743,-5.427,-1.262,0.025,-0.817,1.795
7.127,-6.205,-1.496,0.059,-0.938,1.643
6.505,-6.944,-1.821,0.057,-1.054,1.514
5.879,-7.514,-2.123,0.068,-1.159,1.38
5.404,-7.884,-2.328,0.052,-1.289,1.257
4.742,-7.857,-2.562,0.0,-1.371,1.126
4.31,-7.785,-2.67,-0.009,-1.369,0.953
3.722,-7.673,-2.847,0.007,-1.305,0.7
3.251,-7.786,-2.997,0.031,-1.154,0.456
2.703,-8.063,-3.194,0.084,-1.013,0.213
2.198,-8.527,-3.365,0.153,-0.811,-0.006
1.711,-8.926,-3.565,0.159,-0.664,-0.145
1.382,-9.169,-3.527,0.133,-0.529,-0.211
1.34,-9.16,-3.522,0.058,-0.475,-0.259
1.525,-9.084,-3.543,-0.03,-0.438,-0.291
1.781,-8.946,-3.608,-0.106,-0.632,-0.303
1.697,-8.853,-3.69,-0.137,-0.793,-0.321
1.392,-8.869,-3.678,-0.176,-1.25,-0.35
1.086,-8.943,-3.581,-0.16,-1.339,-0.304
1.08,-9.04,-3.389,-0.14,-1.457,-0.271
1.042,-9.218,-3.122,-0.101,-1.479,-0.252
1.298,-9.381,-2.819,-0.095,-1.616,-0.224
1.517,-9.454,-2.655,-0.087,-1.393,-0.187
1.822,-9.703,-2.503,-0.173,-1.586,-0.244
1.748,-9.657,-2.323,-0.341,-1.92,-0.209
1.514,-9.371,-2.514,-0.4,-1.369,-0.122
1.808,-9.466,-2.525,-0.488,-1.049,-0.15
1.979,-9.688,-2.663,-0.539,-0.877,-0.161
1.853,-9.503,-2.849,-0.535,-0.723,-0.156
1.845,-9.387,-2.89,-0.501,-0.636,-0.432
2.03,-9.535,-2.8,-0.504,-0.969,-0.656
1.628,-9.42,-2.89,-0.436,-0.913,-0.713
1.844,-9.163,-2.888,-0.403,-0.892,-0.721
2.409,-9.158,-2.79,-0.399,-1.026,-0.762
2.465,-9.449,-3.072,-0.393,-0.855,-0.661
2.211,-9.747,-3.058,-0.572,-1.076,-0.637
2.374,-9.229,-3.195,-0.725,-1.345,-0.82
2.18,-9.465,-3.574,-0.861,-1.464,-1.02
1.987,-8.88,-4.076,-0.878,-1.376,-1.121
1.988,-8.374,-4.412,-0.839,-1.231,-1.053
2.378,-7.638,-4.852,-0.676,-1.124,-1.008
2.531,-7.611,-5.353,-0.572,-0.972,-0.776
2.708,-7.123,-5.709,-0.376,-1.008,-0.535
2.15,-7.567,-5.676,-0.299,-0.896,-0.381
2.048,-7.396,-5.752,-0.231,-0.97,-0.36
1.827,-7.311,-5.972,-0.17,-1.107,-0.473
1.389,-7.522,-5.885,-0.091,-1.274,-0.593
1.32,-7.552,-5.8,-0.115,-1.347,-0.689
1.174,-7.249,-5.908,-0.096,-1.527,-0.703
0.809,-7.641,-5.795,-0.04,-1.551,-0.758
0.732,-8.028,-5.45,0.012,-1.564,-0.579
0.458,-7.991,-5.421,0.047,-1.46,-0.47
-0.17,-8.146,-5.006,0.079,-1.36,-0.37
-0.85,-8.415,-4.93,0.004,-1.155,-0.364
-0.786,-8.281,-5.044,-0.192,-0.848,-0.372
-0.647,-8.197,-5.213,-0.38,-0.581,-0.429
-0.358,-8.244,-5.119,-0.537,-0.587,-0.433
-0.019,-7.931,-5.405,-0.679,-0.55,-0.465
1.017,-7.815,-5.362,-0.728,-0.663,-0.373
0.793,-7.939,-5.173,-0.705,-0.892,-0.232
0.395,-7.91,-5.227,-0.704,-0.874,-0.117
-0.036,-7.921,-5.326,-0.659,-0.3,0.028
-0.048,-8.032,-5.369,-0.559,0.164,0.025
0.177,-8.008,-5.425,-0.458,0.367,-0.044
0.478,-7.725,-5.54,-0.338,0.323,-0.144
0.712,-7.679,-5.446,-0.189,0.204,-0.318
1.142,-7.566,-5.368,-0.125,-0.47,-0.584
1.0,-7.538,-5.404,-0.139,-1.071,-0.736
0.481,-7.557,-5.388,-0.163,-1.3,-0.92
0.608,-7.733,-5.254,-0.212,-1.331,-1.038
0.623,-7.884,-5.229,-0.305,-1.499,-1.108
0.349,-8.083,-5.112,-0.388,-1.393,-1.117
0.711,-8.361,-4.86,-0.445,-1.21,-1.093
0.75,-8.545,-4.834,-0.521,-1.272,-1.045
0.604,-8.787,-4.953,-0.603,-1.119,-1.016
0.571,-8.725,-5.217,-0.685,-0.902,-0.894
1.006,-8.637,-5.347,-0.764,-0.77,-0.754
1.097,-8.058,-5.902,-0.77,-0.792,-0.627
1.233,-7.462,-6.083,-0.678,-0.573,-0.484
1.441,-7.025,-6.279,-0.536,-0.456,-0.35
1.485,-6.884,-6.272,-0.413,-0.31,-0.332
1.331,-6.72,-6.737,-0.265,-0.211,-0.301
0.854,-6.88,-6.507,-0.161,0.091,-0.248
0.903,-7.108,-6.481,-0.104,0.421,-0.194
0.852,-7.171,-6.286,-0.093,0.516,-0.16
0.912,-7.114,-6.187,-0.084,0.54,-0.13
0.907,-7.115,-5.908,-0.091,0.538,-0.132
1.168,-7.088,-5.691,-0.151,0.399,-0.177
1.334,-6.974,-5.82,-0.211,0.169,-0.268
1.49,-6.782,-6.068,-0.249,0.058,-0.369
1.533,-6.823,-6.23,-0.285,0.048,-0.449
1.772,-6.985,-6.468,-0.388,-0.023,-0.58
2.075,-7.125,-6.932,-0.464,-0.039,-0.697
2.555,-7.341,-7.051,-0.554,-0.056,-0.804
3.0,-7.461,-7.209,-0.598,-0.001,-0.784
3.698,-7.45,-7.081,-0.595,0.026,-0.637
4.324,-7.431,-6.975,-0.524,0.094,-0.369
5.078,-7.336,-6.933,-0.436,0.156,-0.086
5.224,-7.065,-6.786,-0.304,0.291,0.263
5.202,-6.912,-6.619,-0.223,0.378,0.584
5.017,-6.782,-6.712,-0.119,0.464,0.795
4.789,-6.536,-6.422,-0.023,0.536,0.899
4.284,-6.363,-6.19,0.048,0.621,0.957
4.008,-6.425,-5.89,0.051,0.576,0.939
3.797,-6.422,-5.766,0.033,0.495,0.822
3.622,-6.533,-5.43,-0.039,0.401,0.645
3.363,-6.748,-5.673,-0.133,0.338,0.454
3.427,-7.064,-5.798,-0.234,0.204,0.297
3.354,-7.228,-6.411,-0.319,0.016,0.162
3.11,-7.338,-6.6,-0.371,-0.033,0.075
3.149,-7.343,-7.037,-0.411,-0.118,0.056
3.14,-7.015,-7.043,-0.384,-0.317,0.065
2.82,-6.69,-7.003,-0.294,-0.361,0.055
2.773,-6.603,-6.708,-0.206,-0.29,0.005
2.755,-6.618,-6.85,-0.13,-0.287,-0.051
2.473,-6.655,-6.564,-0.097,-0.153,-0.073
2.146,-6.862,-6.461,-0.124,0.042,-0.074
1.987,-7.11,-6.243,-0.172,0.23,-0.05
1.721,-7.2,-5.93,-0.239,0.274,0.004
1.656,-7.191,-5.656,-0.285,0.324,0.074
1.707,-7.18,-5.653,-0.284,0.257,0.103
1.949,-7.31,-5.789,-0.25,0.175,0.134
2.139,-7.32,-6.077,-0.253,-0.002,0.154
2.284,-7.393,-6.602,-0.231,-0.073,0.198
2.216,-7.453,-6.765,-0.22,-0.138,0.259
2.357,-7.729,-6.805,-0.207,-0.214,0.319
2.151,-7.686,-6.928,-0.222,-0.149,0.361
2.054,-7.607,-6.729,-0.242,-0.033,0.479
2.097,-7.544,-6.565,-0.27,0.112,0.596
2.462,-7.567,-6.252,-0.321,0.214,0.627
2.538,-7.064,-6.332,-0.368,0.401,0.659
2.583,-6.863,-6.029,-0.382,0.528,0.704
2.43,-6.89,-6.033,-0.362,0.691,0.652
2.295,-6.825,-5.826,-0.348,0.739,0.528
2.04,-6.816,-6.028,-0.29,0.782,0.432
1.784,-7.041,-5.992,-0.269,0.646,0.314
1.887,-7.286,-6.098,-0.227,0.528,0.197
1.863,-7.398,-6.065,-0.235,0.268,0.094
1.957,-7.582,-6.162,-0.246,0.178,0.06
2.038,-7.638,-6.338,-0.312,-0.007,0.084
2.013,-7.752,-6.665,-0.326,0.025,0.165
1.617,-7.597,-6.714,-0.395,-0.004,0.248
1.499,-7.457,-6.83,-0.46,0.052,0.383
1.424,-7.066,-6.969,-0.499,-0.049,0.5
1.385,-6.802,-6.93,-0.434,0.081,0.574
1.582,-6.599,-6.442,-0.395,0.21,0.617
2.021,-6.459,-6.829,-0.361,0.377,0.662
2.145,-6.33,-7.112,-0.276,0.67,0.723
2.048,-6.314,-7.164,-0.245,0.932,0.831
1.908,-6.368,-7.028,-0.278,1.175,0.939
1.905,-6.284,-7.406,-0.329,1.151,0.997
1.871,-6.248,-7.065,-0.33,1.206,1.049
1.874,-6.274,-7.022,-0.356,1.019,1.059
1.831,-6.362,-6.937,-0.355,1.019,1.042
1.821,-6.287,-7.151,-0.356,0.842,1.042
1.835,-6.231,-7.199,-0.332,0.884,1.087
1.834,-6.417,-7.553,-0.328,0.811,1.116
2.006,-6.147,-7.805,-0.325,0.911,1.127
2.281,-6.001,-8.18,-0.287,0.834,1.17
2.637,-5.988,-7.918,-0.31,0.92,1.198
2.867,-5.922,-7.89,-0.345,0.917,1.206
3.183,-5.686,-7.519,-0.358,1.004,1.254
3.542,-5.883,-7.251,-0.34,0.992,1.3
3.779,-5.972,-6.874,-0.315,1.095,1.277
4.009,-5.989,-7.065,-0.221,1.099,1.23
3.936,-6.116,-6.862,-0.122,1.124,1.172
3.935,-6.329,-6.944,-0.052,1.091,1.094
3.938,-6.608,-6.71,-0.048,0.997,1.007
4.162,-6.69,-6.966,-0.066,0.901,0.932
4.139,-6.79,-6.921,-0.083,0.73,0.88
4.228,-6.808,-7.226,-0.083,0.557,0.855
3.919,-6.863,-6.994,-0.036,0.357,0.809
3.624,-6.808,-6.816,0.01,0.244,0.747
3.042,-7.142,-6.297,0.048,0.175,0.679
2.571,-7.24,-6.105,0.036,0.252,0.596
2.032,-7.405,-5.81,0.04,0.37,0.576
1.899,-7.411,-5.619,-0.063,0.506,0.611
1.724,-7.383,-5.759,-0.132,0.705,0.682
1.635,-7.067,-5.917,-0.202,0.898,0.758
1.726,-7.03,-6.085,-0.242,1.107,0.837
1.937,-6.929,-6.284,-0.359,1.227,0.786
2.127,-6.711,-6.8,-0.4,1.366,0.691
2.289,-6.547,-6.942,-0.47,1.401,0.603
2.548,-6.435,-7.066,-0.547,1.357,0.531
2.735,-6.272,-7.339,-0.621,1.155,0.473
2.95,-6.149,-7.215,-0.646,1.01,0.474
3.017,-6.126,-7.08,-0.664,0.82,0.449
3.144,-6.026,-7.127,-0.629,0.653,0.41
3.107,-5.93,-7.262,-0.549,0.514,0.361
2.997,-5.929,-7.156,-0.443,0.457,0.309
3.068,-5.991,-7.322,-0.365,0.331,0.266
3.212,-6.058,-7.642,-0.263,0.204,0.268
3.224,-6.374,-7.962,-0.209,0.1,0.265
3.43,-6.594,-8.26,-0.207,-0.02,0.204
3.551,-6.482,-8.22,-0.2,-0.127,0.167
3.382,-6.266,-7.963,-0.149,-0.198,0.139
3.188,-6.237,-7.299,-0.17,-0.2,0.094
3.364,-6.086,-6.959,-0.239,-0.216,0.014
3.581,-5.977,-6.75,-0.295,-0.176,-0.016
3.783,-5.91,-6.899,-0.334,-0.113,-0.014
3.733,-5.941,-7.079,-0.371,0.003,-0.023
3.677,-5.873,-7.246,-0.398,-0.023,-0.086
3.444,-5.703,-7.272,-0.359,-0.071,-0.131
3.091,-5.669,-7.088,-0.269,-0.111,-0.163
2.819,-5.902,-6.797,-0.205,-0.243,-0.244
2.838,-6.112,-6.753,-0.152,-0.385,-0.324
2.765,-6.219,-6.832,-0.097,-0.343,-0.358
2.635,-6.486,-6.999,-0.045,-0.273,-0.307
2.579,-6.926,-7.056,-0.019,-0.207,-0.264
2.922,-6.894,-7.189,-0.063,-0.095,-0.297
3.195,-6.723,-7.336,-0.092,0.011,-0.312
3.578,-6.513,-7.411,-0.072,-0.014,-0.28
3.975,-6.247,-6.985,-0.045,-0.154,-0.317
4.147,-5.645,-7.309,-0.025,-0.24,-0.372
3.937,-5.585,-7.362,-0.009,-0.34,-0.388
3.634,-5.585,-7.489,-0.055,-0.367,-0.363
3.092,-5.7,-7.426,-0.139,-0.403,-0.369
2.651,-5.729,-7.581,-0.228,-0.309,-0.37
2.418,-5.779,-7.125,-0.353,-0.202,-0.353
2.221,-5.684,-7.053,-0.394,-0.092,-0.27
2.17,-5.748,-6.873,-0.4,-0.032,-0.218
2.467,-5.89,-6.953,-0.365,0.051,-0.169
2.629,-5.999,-7.077,-0.352,0.169,-0.101
2.656,-6.062,-7.551,-0.252,0.268,0.025
2.783,-6.457,-7.193,-0.183,0.215,0.113
3.267,-6.668,-7.421,-0.12,0.286,0.155
3.333,-6.787,-7.519,-0.091,0.352,0.195
3.864,-6.671,-7.597,-0.068,0.348,0.209
4.071,-6.614,-7.297,-0.067,0.259,0.192
4.209,-6.156,-7.54,-0.12,0.227,0.193
4.144,-6.066,-7.093,-0.192,0.125,0.189
4.644,-5.916,-7.139,-0.318,-0.068,0.113
4.358,-5.877,-7.271,-0.353,-0.153,0.118
4.516,-5.981,-7.191,-0.38,-0.23,0.137
4.354,-6.09,-7.221,-0.318,-0.168,0.162
4.066,-5.905,-7.228,-0.256,-0.256,0.17
3.585,-5.879,-6.918,-0.123,-0.184,0.216
3.223,-5.944,-6.572,-0.063,-0.21,0.183
2.771,-6.106,-6.386,-0.054,-0.231,0.094
2.564,-6.339,-6.272,-0.119,-0.245,-0.028
2.504,-6.694,-6.319,-0.183,-0.135,-0.115
2.436,-6.939,-6.663,-0.298,-0.117,-0.153
2.59,-7.052,-7.14,-0.348,-0.073,-0.144
2.617,-7.114,-7.461,-0.379,-0.13,-0.144
2.694,-6.915,-7.825,-0.334,-0.154,-0.137
2.796,-6.597,-7.965,-0.256,-0.272,-0.139
2.938,-6.196,-7.793,-0.102,-0.34,-0.172
2.872,-5.883,-7.295,-0.021,-0.44,-0.256
3.142,-5.536,-7.487,0.076,-0.35,-0.315
3.114,-5.545,-7.193,0.124,-0.216,-0.35
3.017,-5.531,-7.145,0.081,-0.138,-0.37
2.586,-5.654,-7.07,-0.028,-0.075,-0.389
2.307,-5.938,-7.143,-0.123,0.039,-0.422
2.018,-6.106,-6.774,-0.24,0.052,-0.456
2.093,-6.186,-7.077,-0.301,-0.096,-0.468
2.053,-6.335,-7.254,-0.224,-0.133,-0.451
2.172,-6.506,-7.469,-0.07,-0.165,-0.4
2.597,-6.646,-7.604,0.131,-0.236,-0.297
2.858,-6.849,-7.694,0.385,-0.402,-0.173
2.908,-7.099,-7.408,0.606,-0.553,-0.097
3.126,-7.319,-6.98,0.799,-0.653,-0.049
3.428,-7.574,-6.585,0.958,-0.794,-0.003
3.141,-7.716,-6.248,1.105,-0.812,0.05
2.985,-7.873,-5.545,1.197,-0.709,0.147
3.029,-8.2,-4.615,1.244,-0.648,0.232
2.991,-8.594,-3.911,1.202,-0.62,0.243
2.767,-8.782,-3.069,1.035,-0.641,0.218
2.538,-8.96,-2.185,0.737,-0.769,0.174
2.143,-9.007,-1.743,0.389,-0.846,0.015
1.821,-8.831,-1.58,0.05,-0.856,-0.186
1.383,-8.466,-1.411,-0.224,-0.927,-0.397
1.111,-8.245,-1.49,-0.384,-0.877,-0.675
1.405,-8.181,-1.638,-0.415,-0.757,-1.048
2.273,-8.339,-1.765,-0.355,-0.757,-1.394
3.375,-8.431,-1.988,-0.285,-0.947,-1.662
4.335,-8.581,-2.268,-0.193,-1.036,-1.857
5.685,-8.796,-2.334,-0.013,-0.965,-1.965
7.139,-8.896,-2.306,0.217,-1.171,-1.887
7.547,-8.803,-2.333,0.412,-1.458,-1.653
7.71,-8.689,-2.308,0.643,-1.448,-1.357
8.078,-8.618,-2.226,0.84,-1.534,-1.039
7.76,-8.586,-2.228,0.866,-1.771,-0.755
6.913,-8.563,-2.422,0.76,-1.716,-0.598
6.705,-8.535,-2.393,0.654,-1.613,-0.526
6.472,-8.428,-2.25,0.537,-1.688,-0.492
5.889,-8.29,-2.165,0.453,-1.664,-0.492
5.836,-8.004,-2.089,0.502,-1.478,-0.456
5.932,-7.747,-2.013,0.594,-1.484,-0.391
5.572,-7.615,-2.368,0.674,-1.363,-0.347
4.812,-7.781,-2.708,0.686,-0.965,-0.367
5.068,-7.835,-2.868,0.683,-0.299,-0.394
5.453,-8.059,-2.752,0.623,-0.18,-0.439
5.661,-8.252,-2.297,0.597,-0.119,-0.528
6.15,-8.393,-1.423,0.583,-0.114,-0.597
6.918,-8.514,-0.693,0.617,-0.31,-0.62
6.932,-8.86,-0.045,0.625,-0.778,-0.592
6.718,-9.028,0.435,0.567,-0.919,-0.5
6.773,-9.146,0.688,0.417,-0.936,-0.321
7.067,-9.184,0.722,0.229,-1.015,-0.179
7.348,-9.009,0.481,-0.002,-1.258,-0.017
7.299,-8.619,0.03,-0.286,-1.618,0.174
6.804,-8.179,-0.798,-0.535,-1.877,0.286
6.155,-7.791,-1.796,-0.656,-1.713,0.343
5.615,-7.483,-2.611,-0.704,-1.375,0.385
4.984,-7.331,-3.219,-0.674,-0.968,0.39
4.677,-7.382,-3.646,-0.536,-0.465,0.336
4.762,-7.571,-3.972,-0.375,-0.086,0.272
4.833,-7.769,-4.308,-0.292,-0.209,0.158
4.524,-8.059,-4.854,-0.236,-0.392,0.016
4.852,-8.415,-5.459,-0.163,-0.294,-0.215
5.593,-8.46,-5.984,-0.081,-0.304,-0.382
6.114,-8.003,-5.944,0.016,-0.466,-0.413
6.193,-7.36,-5.435,0.175,-0.358,-0.367
6.464,-6.902,-4.683,0.384,-0.122,-0.343
6.439,-6.551,-3.83,0.553,-0.092,-0.31
5.993,-6.644,-3.125,0.634,-0.151,-0.32
5.48,-7.201,-2.653,0.664,-0.022,-0.415
5.567,-7.984,-2.408,0.642,0.044,-0.487
5.516,-8.554,-2.195,0.55,-0.07,-0.458
5.276,-8.851,-1.987,0.442,-0.2,-0.282
4.921,-8.933,-1.649,0.373,-0.165,-0.074
4.852,-8.999,-1.425,0.359,-0.042,0.142
4.827,-9.065,-1.246,0.366,0.018,0.309
4.904,-9.121,-1.204,0.368,0.046,0.402
4.888,-9.329,-1.127,0.363,0.093,0.381
5.094,-9.551,-0.884,0.339,0.154,0.288
5.284,-9.717,-0.604,0.266,0.205,0.154
5.273,-9.806,-0.286,0.087,0.196,0.067
5.266,-9.703,0.245,-0.143,0.29,0.006
5.703,-9.388,0.831,-0.376,0.429,-0.052
6.009,-8.997,1.001,-0.613,0.478,-0.087
5.971,-8.69,0.861,-0.832,0.498,-0.094
6.029,-8.403,0.639,-0.96,0.581,-0.14
6.081,-8.148,0.242,-1.025,0.635,-0.195
5.82,-8.018,-0.233,-1.062,0.571,-0.2
5.662,-8.062,-0.714,-1.026,0.543,-0.194
5.873,-8.221,-1.058,-0.915,0.484,-0.195
6.1,-8.49,-1.498,-0.772,0.33,-0.165
6.156,-8.807,-1.938,-0.609,0.137,-0.087
6.234,-9.108,-2.285,-0.429,-0.007,0.025
6.403,-9.306,-2.379,-0.245,-0.144,0.096
6.376,-9.193,-2.355,-0.071,-0.231,0.153
6.445,-8.818,-2.061,0.071,-0.288,0.23
6.438,-8.254,-1.656,0.212,-0.396,0.309
6.163,-7.916,-1.324,0.337,-0.41,0.313
5.791,-7.917,-1.153,0.398,-0.298,0.274
5.436,-8.06,-0.997,0.371,-0.282,0.192
4.815,-8.369,-0.908,0.294,-0.22,0.045
4.441,-8.797,-0.858,0.172,-0.079,-0.134
4.25,-9.083,-0.706,0.031,0.005,-0.283
4.089,-9.127,-0.51,-0.133,0.05,-0.35
4.038,-9.244,-0.415,-0.321,0.186,-0.338
4.177,-9.506,-0.329,-0.5,0.33,-0.275
4.447,-9.812,-0.289,-0.676,0.502,-0.201
5.018,-9.986,-0.415,-0.864,0.698,-0.137
5.302,-9.809,-0.512,-1.084,0.788,-0.052
5.505,-9.697,-0.548,-1.24,0.976,-0.02
5.916,-9.369,-0.629,-1.389,1.113,-0.066
5.998,-8.794,-0.764,-1.565,1.141,-0.125
6.014,-8.264,-0.712,-1.725,1.223,-0.201
6.492,-7.806,-0.639,-1.815,1.311,-0.343
6.963,-7.191,-0.622,-1.889,1.267,-0.449
7.236,-6.575,-0.724,-1.906,1.326,-0.513
7.684,-6.309,-0.834,-1.842,1.437,-0.588
8.112,-5.992,-1.155,-1.716,1.449,-0.637
8.412,-5.808,-1.427,-1.587,1.424,-0.64
8.657,-5.541,-1.688,-1.458,1.406,-0.663
9.114,-5.397,-1.747,-1.332,1.327,-0.693
9.435,-5.04,-1.799,-1.234,1.206,-0.743
9.895,-4.762,-1.703,-1.168,1.052,-0.823
10.313,-4.272,-1.692,-1.093,1.011,-0.945
10.973,-3.749,-1.678,-1.068,0.843,-1.017
11.078,-3.188,-1.751,-1.121,0.581,-1.047
11.459,-2.647,-1.825,-1.18,0.377,-1.016
11.558,-1.926,-1.724,-1.273,0.138,-0.935
11.709,-1.435,-1.847,-1.379,-0.249,-0.755
11.385,-1.157,-1.949,-1.466,-0.577,-0.609
11.697,-0.8,-2.274,-1.491,-0.765,-0.538
11.43,-0.365,-2.588,-1.515,-1.031,-0.507
11.195,-0.126,-3.36,-1.527,-1.282,-0.455
10.5,0.153,-4.04,-1.514,-1.396,-0.47
10.536,0.567,-4.703,-1.434,-1.466,-0.499
9.925,1.033,-5.314,-1.372,-1.652,-0.523
9.959,1.487,-6.333,-1.254,-1.905,-0.482
9.297,2.085,-7.028,-1.058,-2.182,-0.407
8.72,2.734,-7.62,-0.791,-2.227,-0.359
8.066,3.305,-8.116,-0.468,-2.1,-0.304
7.541,3.644,-8.336,-0.106,-2.057,-0.219
6.25,3.846,-8.29,0.226,-1.759,-0.172
5.567,3.768,-8.228,0.507,-1.196,-0.155
5.474,3.39,-8.149,0.673,-0.954,-0.07
4.678,2.942,-8.25,0.755,-0.978,-0.034
3.94,2.489,-8.601,0.83,-0.715,-0.05
3.917,1.947,-8.691,0.847,-0.429,-0.101
4.049,1.517,-8.933,0.756,-0.48,-0.173
3.646,1.309,-9.105,0.639,-0.441,-0.271
3.681,1.168,-9.141,0.518,-0.245,-0.317
3.842,1.057,-9.012,0.36,-0.252,-0.33
3.68,0.916,-8.991,0.222,-0.292,-0.331
3.365,0.746,-8.833,0.099,-0.302,-0.379
3.135,0.542,-8.717,-0.011,-0.373,-0.455
2.772,0.42,-8.603,-0.124,-0.482,-0.568
2.273,0.306,-8.511,-0.217,-0.386,-0.679
2.149,-0.078,-8.361,-0.35,-0.371,-0.765
1.937,-0.287,-8.533,-0.474,-0.375,-0.822
1.925,-0.208,-8.577,-0.545,-0.337,-0.858
1.472,-0.386,-8.726,-0.633,-0.137,-0.785
1.65,-0.639,-9.167,-0.703,-0.023,-0.641
1.092,-0.536,-9.673,-0.69,0.077,-0.537
0.923,-0.404,-9.853,-0.604,0.395,-0.508
1.042,-0.55,-9.929,-0.538,0.748,-0.536
1.642,-0.341,-9.864,-0.483,0.786,-0.625
2.053,0.045,-9.487,-0.413,0.904,-0.71
2.99,0.434,-9.165,-0.386,0.721,-0.767
3.103,0.888,-8.852,-0.335,0.802,-0.728
3.889,1.159,-8.713,-0.304,0.62,-0.643
3.963,1.336,-8.628,-0.265,0.614,-0.591
4.276,1.511,-8.686,-0.258,0.444,-0.611
4.266,1.627,-8.655,-0.237,0.532,-0.645
4.83,1.675,-8.671,-0.242,0.339,-0.688
4.465,1.954,-8.794,-0.293,0.282,-0.715
4.746,1.955,-9.158,-0.338,0.27,-0.774
4.617,1.912,-9.232,-0.324,0.244,-0.834
4.723,2.078,-9.157,-0.279,0.244,-0.806
4.875,2.233,-9.222,-0.299,0.114,-0.741
4.731,2.226,-9.419,-0.272,0.11,-0.699
4.945,2.425,-9.269,-0.204,0.031,-0.645
4.91,2.692,-9.167,-0.175,-0.042,-0.549
4.884,2.863,-9.171,-0.168,-0.116,-0.464
4.713,2.928,-9.05,-0.105,-0.115,-0.399
4.824,2.99,-8.71,-0.043,-0.182,-0.351
4.632,3.169,-8.62,-0.045,-0.385,-0.301
4.53,3.487,-8.807,-0.027,-0.339,-0.206
4.244,3.52,-8.86,0.004,-0.302,-0.05
3.991,3.372,-9.169,0.003,-0.341,0.054
3.568,3.173,-9.33,0.027,-0.176,0.112
3.272,2.875,-9.348,0.065,-0.029,0.169
2.825,2.16,-9.231,0.033,-0.046,0.166
2.647,1.477,-9.394,-0.006,-0.042,0.025
2.549,0.827,-9.431,0.016,-0.059,-0.155
2.374,0.39,-9.476,0.03,-0.234,-0.334
2.454,-0.003,-9.457,0.046,-0.169,-0.514
2.658,-0.143,-9.233,0.067,-0.192,-0.683
2.803,-0.172,-9.202,0.072,-0.172,-0.777
2.845,-0.05,-8.951,0.057,-0.016,-0.782
3.041,-0.005,-8.911,0.025,0.072,-0.726
3.106,0.13,-9.02,0.013,0.099,-0.643
3.21,0.109,-9.286,0.069,0.167,-0.426
3.473,0.281,-9.161,0.128,0.254,-0.181
3.839,0.31,-9.373,0.158,0.197,0.061
4.126,0.169,-9.18,0.206,0.144,0.275
4.261,-0.17,-9.061,0.229,-0.053,0.458
4.278,-0.31,-8.935,0.173,-0.179,0.443
4.198,-0.624,-9.034,0.09,-0.357,0.345
3.94,-0.784,-8.897,0.025,-0.38,0.244
3.946,-0.714,-9.177,-0.038,-0.344,0.206
3.831,-0.635,-9.279,-0.065,-0.196,0.223
3.869,-0.646,-9.366,-0.013,-0.11,0.307
3.742,-0.693,-9.347,0.07,-0.063,0.405
3.659,-0.926,-9.322,0.159,-0.08,0.506
3.416,-1.323,-9.233,0.24,-0.065,0.563
3.161,-1.81,-9.201,0.293,-0.06,0.604
3.005,-2.21,-9.181,0.344,0.019,0.616
2.949,-2.787,-9.014,0.371,0.075,0.6
2.888,-3.203,-8.957,0.39,0.177,0.543
3.034,-3.488,-8.915,0.399,0.191,0.484
3.196,-3.547,-8.741,0.413,0.211,0.381
3.029,-3.92,-8.738,0.366,0.207,0.299
3.093,-3.934,-8.766,0.332,0.278,0.199
3.359,-3.863,-8.551,0.287,0.147,0.108
3.046,-3.82,-8.454,0.247,0.102,0.017
2.968,-4.084,-8.558,0.216,0.202,-0.025
3.205,-4.238,-8.43,0.176,0.167,-0.072
3.082,-4.3,-8.318,0.152,0.121,-0.089
2.867,-4.412,-8.239,0.184,0.301,-0.101
2.995,-4.591,-7.952,0.238,0.477,-0.128
3.217,-4.578,-7.526,0.33,0.616,-0.177
3.328,-4.439,-7.108,0.527,0.874,-0.305
3.956,-4.732,-6.48,0.766,1.136,-0.438
4.704,-5.178,-5.871,0.961,1.209,-0.565
5.612,-5.65,-5.252,1.134,1.179,-0.663
6.339,-6.246,-4.471,1.229,1.048,-0.76
7.162,-6.709,-3.783,1.223,0.86,-0.803
7.557,-6.97,-3.241,1.164,0.663,-0.869
7.764,-6.972,-2.676,1.106,0.733,-0.958
7.935,-6.968,-2.025,0.998,0.868,-1.047
8.251,-6.782,-1.282,0.865,1.018,-1.168
8.803,-6.475,-0.477,0.72,1.11,-1.291
9.185,-6.017,0.266,0.54,1.113,-1.394
9.542,-5.592,0.959,0.316,1.032,-1.455
10.053,-4.931,1.645,0.127,0.977,-1.492
10.34,-4.14,2.178,-0.003,0.826,-1.467
10.148,-3.425,2.631,-0.083,0.73,-1.369
10.271,-2.837,3.081,-0.13,0.693,-1.3
10.594,-2.169,3.444,-0.145,0.467,-1.244
10.672,-1.55,3.581,-0.115,0.195,-1.231
10.905,-0.635,3.687,-0.044,0.146,-1.285
11.22,-0.142,3.627,-0.002,0.003,-1.401
11.063,0.353,3.325,-0.058,-0.225,-1.465
10.925,1.1,3.029,-0.136,-0.404,-1.553
10.369,2.078,2.7,-0.246,-0.432,-1.605
10.132,2.609,2.337,-0.367,-0.461,-1.552
9.857,3.554,2.188,-0.48,-0.551,-1.447
9.956,4.785,2.213,-0.51,-0.442,-1.301
10.03,5.606,2.209,-0.47,-0.23,-1.133
10.393,6.002,2.348,-0.448,-0.173,-0.984
10.267,6.243,2.275,-0.443,-0.369,-0.883
9.95,6.339,2.21,-0.425,-0.382,-0.833
9.625,6.255,2.16,-0.383,-0.458,-0.852
9.293,6.309,2.067,-0.39,-0.536,-0.876
9.107,6.314,1.739,-0.383,-0.713,-0.875
8.862,6.539,1.481,-0.359,-0.861,-0.876
8.803,6.992,1.214,-0.3,-1.051,-0.876
8.665,7.426,0.731,-0.239,-1.213,-0.831
8.409,7.843,0.288,-0.186,-1.354,-0.74
8.148,8.181,-0.123,-0.153,-1.365,-0.597
7.898,8.398,-0.406,-0.182,-1.269,-0.374
7.803,8.389,-0.95,-0.252,-1.148,-0.109
7.827,8.242,-1.314,-0.332,-1.058,0.137
7.851,7.936,-1.671,-0.396,-1.149,0.362
7.798,7.958,-1.895,-0.439,-1.341,0.539
7.631,8.038,-2.265,-0.423,-1.588,0.654
7.353,8.174,-2.432,-0.361,-1.712,0.707
7.037,8.065,-2.819,-0.287,-1.717,0.721
6.891,7.821,-3.069,-0.183,-1.547,0.699
6.842,7.541,-3.442,-0.069,-1.338,0.64
7.016,7.309,-3.775,0.046,-1.051,0.579
7.224,6.95,-4.164,0.105,-0.876,0.573
7.411,6.71,-4.4,0.139,-0.787,0.639
7.458,6.567,-4.73,0.147,-0.744,0.727
7.516,6.227,-5.003,0.142,-0.694,0.816
7.461,5.763,-5.277,0.11,-0.695,0.859
7.524,5.245,-5.451,0.079,-0.686,0.862
7.52,4.902,-5.507,0.02,-0.762,0.818
7.425,4.53,-5.684,-0.069,-0.77,0.794
7.344,4.226,-5.839,-0.167,-0.686,0.822
7.339,3.973,-5.962,-0.268,-0.638,0.921
7.176,3.81,-6.212,-0.36,-0.545,1.071
7.148,3.598,-6.549,-0.432,-0.406,1.216
7.246,3.312,-6.79,-0.477,-0.317,1.3
7.287,3.052,-6.91,-0.497,-0.338,1.3
7.226,2.617,-6.979,-0.489,-0.291,1.231
7.268,2.202,-6.907,-0.477,-0.259,1.1
7.394,1.679,-6.783,-0.481,-0.257,0.972
7.456,1.407,-6.729,-0.49,-0.364,0.885
7.357,1.126,-6.829,-0.511,-0.449,0.849
7.272,1.068,-7.009,-0.546,-0.484,0.841
7.196,1.074,-7.302,-0.602,-0.49,0.837
7.104,1.058,-7.612,-0.619,-0.558,0.846
6.713,1.093,-7.803,-0.615,-0.547,0.855
6.531,1.05,-7.922,-0.607,-0.367,0.874
6.595,1.001,-7.936,-0.609,-0.295,0.881
6.523,0.914,-7.891,-0.602,-0.363,0.906
6.248,1.01,-7.864,-0.598,-0.338,0.935
6.254,0.977,-7.895,-0.608,-0.275,0.945
6.232,1.12,-7.899,-0.619,-0.361,0.946
5.965,1.219,-7.965,-0.629,-0.402,0.958
5.869,1.303,-8.001,-0.635,-0.343,0.966
5.829,1.411,-8.072,-0.659,-0.328,0.935
5.992,1.568,-8.142,-0.676,-0.476,0.935
5.609,1.646,-8.321,-0.69,-0.622,0.949
5.29,1.68,-8.567,-0.665,-0.566,0.973
5.072,1.642,-8.782,-0.619,-0.508,0.98
4.763,1.529,-8.947,-0.562,-0.479,0.983
4.337,1.409,-9.08,-0.501,-0.269,0.941
4.452,1.245,-9.075,-0.445,-0.059,0.884
4.658,1.193,-8.989,-0.435,-0.089,0.826
4.692,1.156,-8.96,-0.446,-0.165,0.798
4.745,1.18,-8.856,-0.468,-0.221,0.802
4.821,1.126,-8.789,-0.524,-0.276,0.837
4.755,1.048,-8.715,-0.61,-0.34,0.876
4.846,1.133,-8.673,-0.663,-0.402,0.922
4.599,1.407,-8.463,-0.686,-0.501,1.004
4.409,1.5,-8.559,-0.71,-0.382,1.138
4.196,1.617,-8.604,-0.707,-0.294,1.224
4.227,1.749,-8.861,-0.665,-0.197,1.275
3.8,1.681,-8.92,-0.636,-0.109,1.304
3.96,1.383,-9.293,-0.626,0.132,1.306
4.076,1.292,-9.241,-0.6,0.126,1.243
4.278,1.145,-9.36,-0.577,0.162,1.219
4.407,1.072,-9.225,-0.555,0.177,1.228
4.87,0.97,-9.385,-0.536,0.26,1.265
5.179,1.067,-9.344,-0.506,0.256,1.291
5.584,1.029,-9.503,-0.475,0.26,1.345
5.757,1.073,-9.413,-0.425,0.268,1.443
5.934,1.021,-9.355,-0.38,0.346,1.562
6.086,0.911,-9.133,-0.365,0.343,1.665
5.976,0.596,-8.87,-0.374,0.249,1.749
5.772,0.391,-8.583,-0.362,0.227,1.777
5.72,0.15,-8.391,-0.357,0.249,1.73
5.668,-0.017,-8.233,-0.36,0.253,1.643
5.778,-0.146,-8.156,-0.363,0.302,1.566
5.917,-0.338,-8.12,-0.374,0.438,1.52
6.331,-0.607,-8.11,-0.426,0.532,1.524
6.567,-0.945,-8.089,-0.464,0.532,1.564
6.788,-1.294,-8.121,-0.454,0.559,1.617
6.687,-1.74,-8.07,-0.416,0.59,1.632
6.644,-2.159,-8.052,-0.349,0.587,1.617
6.316,-2.616,-8.005,-0.273,0.629,1.553
6.164,-3.08,-7.864,-0.203,0.646,1.45
5.865,-3.464,-7.608,-0.164,0.653,1.295
5.797,-3.89,-7.303,-0.128,0.735,1.123
5.93,-4.281,-6.888,-0.116,0.803,0.937
5.946,-4.671,-6.421,-0.119,0.811,0.74
5.945,-5.059,-5.984,-0.142,0.954,0.549
6.13,-5.427,-5.572,-0.203,1.072,0.366
6.399,-5.471,-5.267,-0.271,1.145,0.183
6.382,-5.404,-4.997,-0.329,1.182,-0.051
6.639,-4.952,-4.679,-0.333,1.498,-0.295
6.999,-4.352,-4.193,-0.317,1.897,-0.598
8.366,-3.755,-3.366,-0.244,2.211,-0.855
9.351,-3.373,-2.511,-0.139,2.128,-1.082
10.392,-2.953,-1.673,0.014,2.093,-1.21
11.406,-2.774,-0.87,0.174,1.807,-1.231
12.331,-2.585,-0.247,0.329,1.23,-1.125
11.75,-2.378,-0.06,0.459,0.689,-1.031
11.724,-1.987,0.097,0.549,0.488,-0.961
11.731,-1.609,0.258,0.584,0.304,-0.913
11.364,-1.127,0.229,0.592,0.078,-0.933
10.744,-0.556,0.184,0.604,0.164,-1.0
10.743,-0.026,0.42,0.602,0.255,-1.079
10.405,0.612,0.772,0.662,0.46,-1.175
9.937,1.457,1.154,0.741,0.562,-1.295
9.674,2.397,1.59,0.869,0.756,-1.401
9.819,3.474,2.012,1.024,0.672,-1.523
9.763,4.681,2.294,1.228,0.663,-1.594
9.638,5.838,2.323,1.372,0.565,-1.624
9.485,6.85,2.516,1.476,0.623,-1.599
9.517,7.567,2.586,1.464,0.604,-1.541
9.053,8.075,2.621,1.369,0.548,-1.45
8.417,8.569,2.217,1.233,0.427,-1.416
7.873,8.985,1.874,1.105,0.285,-1.424
7.132,9.361,1.001,1.003,0.021,-1.475
6.59,9.796,0.254,0.972,-0.162,-1.555
6.144,10.202,-0.592,1.03,-0.395,-1.687
5.236,10.587,-1.351,1.081,-0.495,-1.805
4.755,10.675,-2.083,1.11,-0.67,-1.864
4.112,10.761,-2.702,1.155,-0.57,-1.88
3.056,10.714,-3.272,1.169,-0.622,-1.896
2.159,10.416,-3.725,1.109,-0.412,-1.852
1.465,9.815,-4.159,1.028,-0.362,-1.754
0.562,9.29,-4.471,0.985,-0.112,-1.637
-0.155,8.565,-4.731,0.899,-0.13,-1.513
-0.561,7.778,-5.059,0.819,0.009,-1.335
-1.21,7.134,-5.541,0.752,0.053,-1.149
-1.473,6.544,-5.849,0.715,0.11,-0.994
-1.964,5.97,-6.252,0.66,0.019,-0.868
-2.294,5.453,-6.645,0.64,0.134,-0.777
-2.631,5.0,-7.105,0.638,0.096,-0.741
-2.718,4.495,-7.501,0.661,0.161,-0.724
-2.683,3.975,-7.888,0.7,0.212,-0.706
-2.761,3.383,-8.126,0.746,0.362,-0.684
-2.575,2.745,-8.41,0.79,0.353,-0.64
-2.354,2.06,-8.609,0.835,0.581,-0.563
-2.16,1.431,-8.716,0.874,0.687,-0.497
-1.452,0.897,-8.798,0.925,0.977,-0.384
-1.196,0.436,-8.911,0.956,1.062,-0.243
-0.349,0.119,-8.78,1.031,1.349,0.057
-0.004,0.072,-8.435,1.25,1.559,0.414
0.761,0.035,-8.066,1.532,1.63,0.853
1.076,-0.109,-7.535,1.902,1.431,1.255
1.318,-0.398,-6.813,2.315,1.287,1.59
1.584,-1.386,-5.519,2.641,1.107,1.699
1.249,-2.483,-4.856,2.704,0.983,1.692
0.913,-4.516,-3.983,2.501,1.597,1.63
0.326,-6.246,-2.689,1.963,2.839,1.619
1.99,-7.884,-2.38,1.216,3.648,1.537
1.506,-8.565,-2.775,0.487,4.026,1.448
3.441,-9.229,-2.733,-0.182,4.171,1.31
3.691,-8.65,-3.072,-0.658,3.322,0.964
4.239,-8.066,-4.191,-1.02,1.759,0.384
2.765,-7.68,-4.807,-1.329,0.45,-0.159
2.865,-7.441,-5.618,-1.727,-0.535,-0.7
1.39,-7.173,-6.73,-2.191,-1.306,-1.115
1.109,-6.675,-8.018,-2.666,-1.822,-1.359
0.303,-5.995,-9.112,-2.996,-2.097,-1.421
-0.166,-4.62,-10.186,-3.105,-2.021,-1.429
-1.056,-3.258,-10.814,-3.058,-1.946,-1.406
-1.529,-1.666,-11.151,-2.836,-1.888,-1.421
-2.144,-0.219,-11.072,-2.557,-1.654,-1.445
-2.6,0.841,-10.815,-2.276,-1.309,-1.497
-2.772,1.707,-10.337,-2.007,-1.009,-1.539
-2.782,2.472,-9.937,-1.751,-0.749,-1.536
-2.861,2.921,-9.483,-1.46,-0.55,-1.485
-3.284,2.825,-8.816,-1.262,-0.391,-1.436
-2.86,2.982,-8.451,-1.063,-0.272,-1.344
-2.63,2.727,-8.433,-0.867,-0.347,-1.151
-2.813,2.62,-8.085,-0.697,-0.136,-0.968
-3.271,2.282,-7.816,-0.513,-0.301,-0.7
-2.435,2.498,-8.434,-0.192,-0.12,-0.35
-2.788,2.415,-8.704,0.162,-0.238,0.029
-4.403,2.459,-8.071,0.579,0.115,0.334
-4.125,2.006,-7.61,0.953,0.634,0.554
-5.582,1.733,-8.109,1.177,1.16,0.5
-6.207,1.015,-6.585,1.44,2.803,0.351
-4.731,0.269,-5.78,1.507,4.291,0.2
-1.652,-0.541,-5.177,1.466,5.829,0.149
-0.082,-1.191,-4.127,1.437,6.65,0.136
4.482,-1.94,-0.924,1.414,7.941,0.324
6.951,-2.464,1.392,1.184,7.588,0.497
7.86,-3.018,4.765,0.935,7.256,0.583
8.143,-3.302,7.818,0.562,6.175,0.573
7.892,-3.603,10.222,0.084,5.263,0.474
6.67,-3.711,11.362,-0.453,4.15,0.29
5.247,-4.105,11.865,-0.96,3.226,0.142
4.223,-4.655,10.901,-1.285,2.585,0.041
3.034,-5.366,10.634,-1.538,2.424,-0.065
2.082,-5.79,9.525,-1.613,2.16,-0.092
0.942,-6.449,8.329,-1.621,2.046,-0.214
0.552,-7.095,7.352,-1.508,1.942,-0.373
-0.149,-7.224,6.963,-1.424,1.936,-0.544
-0.754,-7.296,6.063,-1.323,1.796,-0.759
-0.832,-7.548,5.708,-1.238,1.922,-0.96
-0.817,-7.679,5.385,-1.122,2.059,-1.095
-0.838,-7.578,4.925,-1.055,2.4,-1.233
-0.413,-7.579,4.496,-1.024,2.667,-1.461
-0.172,-7.56,3.114,-0.774,2.966,-1.714
0.402,-7.886,2.979,-0.748,2.869,-1.999
0.657,-8.232,2.89,-0.607,3.025,-2.082
1.4,-8.466,2.478,-0.54,2.627,-1.945
1.755,-8.774,3.204,-0.316,2.484,-1.582
2.491,-8.955,4.17,-0.305,2.171,-1.128
2.654,-8.967,4.463,-0.092,2.11,-0.641
3.118,-8.806,4.437,-0.012,1.63,-0.348
3.145,-8.915,4.968,0.117,1.417,-0.28
3.06,-8.882,4.339,0.091,0.921,-0.393
3.201,-8.903,4.362,0.079,0.589,-0.523
3.634,-8.73,4.102,-0.017,0.252,-0.566
3.679,-8.44,4.026,-0.122,0.065,-0.544
4.097,-8.362,3.791,-0.207,-0.012,-0.389
4.08,-8.492,3.854,-0.237,0.006,-0.245
4.564,-8.85,3.724,-0.263,0.091,-0.096
4.407,-8.947,3.294,-0.168,0.192,0.007
4.754,-9.307,3.35,-0.055,0.207,0.077
4.763,-9.24,3.171,0.014,0.199,0.061
5.037,-9.18,3.061,0.072,0.005,0.088
4.391,-8.975,3.109,0.088,-0.14,0.057
4.633,-8.994,3.377,0.033,-0.236,0.024
4.321,-9.032,3.636,-0.019,-0.325,0.017
4.045,-8.955,3.963,-0.045,-0.378,0.004
3.769,-8.847,4.266,-0.103,-0.279,-0.0
3.731,-8.621,4.315,-0.134,-0.264,0.022
3.28,-8.549,4.331,-0.126,-0.165,0.037
3.114,-8.426,4.324,-0.097,-0.072,0.033
2.855,-8.566,4.363,-0.08,0.107,0.028
2.959,-8.595,4.572,-0.049,0.114,-0.0
2.917,-8.697,4.928,-0.055,0.116,-0.034
2.996,-8.583,5.291,-0.057,0.029,-0.036
3.021,-8.363,5.304,-0.061,-0.035,-0.026
3.041,-8.221,5.365,-0.029,-0.238,-0.001
2.795,-8.187,5.213,0.011,-0.234,0.049
2.797,-8.2,5.116,0.079,-0.307,0.099
2.698,-8.217,5.026,0.142,-0.337,0.104
2.753,-8.25,5.207,0.204,-0.394,0.099
2.831,-8.197,5.388,0.251,-0.428,0.095
3.008,-8.115,5.66,0.27,-0.504,0.093
3.056,-8.048,5.867,0.28,-0.537,0.108
3.224,-7.989,6.073,0.275,-0.595,0.168
3.191,-7.801,6.001,0.254,-0.625,0.232
3.398,-7.622,6.176,0.249,-0.669,0.255
3.424,-7.326,6.391,0.319,-0.723,0.242
3.605,-6.869,6.591,0.431,-0.752,0.201
3.56,-6.558,6.722,0.543,-0.781,0.082
3.771,-6.422,7.151,0.665,-0.742,-0.068
3.629,-6.157,7.241,0.766,-0.718,-0.194
4.074,-5.904,7.26,0.81,-0.645,-0.282
4.387,-5.739,7.319,0.822,-0.608,-0.368
5.174,-5.325,7.441,0.857,-0.597,-0.414
5.834,-4.825,7.48,0.896,-0.609,-0.442
6.814,-4.335,7.607,0.912,-0.653,-0.492
7.286,-3.819,7.74,0.899,-0.753,-0.585
8.089,-3.234,7.642,0.864,-0.991,-0.676
8.172,-2.644,7.513,0.8,-1.048,-0.772
8.619,-1.987,7.361,0.737,-1.284,-0.814
8.868,-1.316,7.13,0.667,-1.203,-0.785
8.967,-0.636,6.769,0.612,-1.245,-0.695
9.226,-0.013,6.503,0.588,-0.948,-0.55
9.336,0.639,6.188,0.604,-0.949,-0.381
9.538,1.215,5.759,0.668,-0.657,-0.234
9.224,1.702,5.391,0.776,-0.642,-0.154
9.653,2.01,5.211,0.901,-0.451,-0.104
9.367,2.351,4.998,1.002,-0.456,-0.14
9.889,2.565,4.898,1.044,-0.317,-0.214
9.929,2.784,4.814,1.007,-0.299,-0.29
10.331,2.871,4.73,0.946,-0.224,-0.3
10.408,2.979,4.564,0.876,-0.119,-0.247
10.681,3.062,4.549,0.804,-0.032,-0.119
10.559,3.158,4.375,0.725,0.044,0.039
10.552,3.097,4.218,0.647,0.075,0.179
10.49,3.141,3.991,0.582,0.02,0.273
10.114,3.116,3.741,0.521,-0.131,0.26
9.721,3.125,3.256,0.521,-0.199,0.16
9.457,3.067,2.859,0.641,-0.181,-0.031
9.387,3.389,2.389,0.841,-0.25,-0.254
9.292,3.895,1.985,1.102,-0.135,-0.483
9.181,4.355,1.802,1.393,-0.056,-0.673
9.05,5.002,1.826,1.641,0.223,-0.847
8.903,5.801,2.19,1.814,0.524,-0.962
8.363,6.357,2.414,1.929,0.8,-1.075
8.141,6.94,2.784,1.94,0.926,-1.228
7.742,7.826,2.622,1.917,1.11,-1.395
7.573,8.409,2.222,1.801,0.985,-1.521
7.376,8.993,1.285,1.686,0.807,-1.657
6.929,9.646,0.356,1.523,0.634,-1.757
6.636,9.983,-0.96,1.377,0.469,-1.767
6.367,10.201,-2.144,1.249,0.365,-1.715
6.105,10.389,-3.294,1.266,0.519,-1.599
5.884,10.388,-4.062,1.306,0.626,-1.35
6.19,10.012,-4.463,1.401,0.971,-1.018
6.075,9.691,-4.501,1.508,1.463,-0.618
7.08,8.996,-4.008,1.543,1.838,-0.147
7.692,8.354,-3.192,1.42,1.941,0.338
8.177,7.633,-2.508,1.166,2.179,0.774
8.506,7.088,-1.907,0.828,1.968,1.103
9.032,6.443,-1.385,0.412,1.646,1.337
8.951,6.101,-1.211,0.003,1.319,1.439
8.888,5.757,-1.08,-0.332,0.937,1.426
8.922,5.47,-0.953,-0.605,0.53,1.335
8.875,5.052,-0.822,-0.854,0.321,1.204
9.086,4.847,-0.817,-1.074,0.025,1.044
8.989,4.689,-1.015,-1.238,-0.164,0.899
9.142,4.457,-1.198,-1.362,-0.208,0.778
9.174,4.318,-1.487,-1.475,-0.371,0.669
9.449,4.251,-1.679,-1.547,-0.503,0.572
9.263,4.237,-1.715,-1.574,-0.485,0.498
9.162,4.213,-1.558,-1.652,-0.572,0.428
9.127,4.417,-1.59,-1.772,-0.579,0.368
9.203,4.668,-1.616,-1.877,-0.618,0.321
9.178,4.966,-1.82,-1.956,-0.528,0.288
9.063,5.394,-2.071,-2.027,-0.512,0.273
9.174,5.591,-2.288,-2.047,-0.464,0.194
8.841,5.874,-2.315,-2.043,-0.409,0.131
8.739,6.02,-2.332,-2.043,-0.498,0.018
8.605,6.207,-2.171,-2.063,-0.396,-0.057
8.569,6.379,-2.226,-2.15,-0.482,-0.145
8.467,6.689,-2.169,-2.194,-0.36,-0.189
8.814,6.65,-2.161,-2.264,-0.429,-0.266
8.944,6.98,-1.855,-2.301,-0.423,-0.306
9.245,7.321,-1.31,-2.459,-0.522,-0.264
9.133,7.682,-0.534,-2.596,-0.448,-0.181
9.617,7.692,0.29,-2.712,-0.534,-0.141
9.3,7.63,0.871,-2.73,-0.527,-0.153
9.433,7.12,1.375,-2.683,-0.48,-0.196
8.857,6.76,1.592,-2.461,-0.478,-0.362
9.309,6.169,1.896,-2.179,-0.502,-0.573
8.557,6.036,2.024,-1.937,-0.613,-0.726
8.91,6.063,2.45,-1.738,-0.651,-0.826
8.495,6.249,2.707,-1.629,-0.737,-0.871
8.66,6.33,2.951,-1.545,-0.852,-0.858
8.076,6.43,3.053,-1.441,-0.985,-0.797
8.055,6.529,3.219,-1.292,-0.799,-0.681
7.781,6.611,3.305,-1.114,-0.798,-0.557
7.968,6.766,3.44,-0.887,-0.515,-0.439
8.282,6.963,3.468,-0.658,-0.371,-0.354
8.58,7.038,3.463,-0.446,-0.18,-0.308
8.967,6.893,3.398,-0.304,-0.199,-0.297
9.138,6.808,3.244,-0.216,-0.196,-0.282
9.124,6.684,3.048,-0.149,-0.249,-0.23
8.856,6.492,2.951,-0.069,-0.317,-0.175
8.604,6.431,2.9,-0.003,-0.329,-0.137
8.416,6.593,2.819,0.081,-0.409,-0.079
8.131,6.792,2.728,0.187,-0.398,-0.022
7.991,6.886,2.574,0.3,-0.471,-0.03
7.841,6.635,2.169,0.346,-0.357,0.008
8.237,6.799,1.716,0.375,-0.303,0.088
8.485,7.127,1.261,0.391,-0.173,0.053
8.731,6.828,0.688,0.333,-0.174,-0.02
9.019,6.614,0.273,0.221,-0.216,-0.038
9.084,6.718,0.221,0.074,-0.215,-0.029
9.103,6.462,0.202,-0.112,-0.295,-0.02
8.663,6.022,0.015,-0.289,-0.289,0.04
8.748,6.178,0.074,-0.417,-0.148,0.142
8.68,6.261,0.164,-0.55,-0.032,0.221
9.016,6.372,0.175,-0.645,-0.102,0.233
8.914,6.361,0.259,-0.72,-0.133,0.205
9.418,6.179,0.475,-0.813,-0.207,0.202
9.422,5.982,0.637,-0.904,-0.268,0.221
9.631,5.915,0.781,-1.02,-0.361,0.225
9.447,5.814,0.761,-1.094,-0.445,0.183
9.711,5.587,0.682,-1.113,-0.393,0.134
9.652,5.636,1.003,-1.121,-0.535,0.089
9.551,5.729,1.374,-1.076,-0.565,0.031
9.412,5.647,1.743,-0.938,-0.508,-0.018
9.388,5.642,2.158,-0.791,-0.431,-0.028
9.175,5.791,2.428,-0.65,-0.424,-0.003
9.026,5.922,2.316,-0.462,-0.344,0.026
8.94,5.979,2.084,-0.278,-0.231,0.047
8.923,6.074,1.881,-0.116,-0.087,0.065
9.07,6.3,1.696,0.036,0.09,0.053
9.221,6.315,1.602,0.142,0.15,0.029
9.17,6.327,1.382,0.156,0.019,-0.025
8.942,6.391,1.123,0.147,-0.256,-0.087
8.607,6.463,0.604,0.152,-0.565,-0.222
8.054,6.256,0.023,0.166,-0.902,-0.454
7.586,6.305,-0.432,0.206,-1.052,-0.801
7.332,6.193,-0.832,0.276,-1.004,-1.179
6.989,5.967,-1.122,0.323,-0.863,-1.59
6.676,5.86,-1.258,0.35,-0.53,-1.918
6.561,6.114,-1.203,0.327,-0.339,-2.113
5.994,6.409,-1.418,0.264,-0.354,-2.164
5.61,6.846,-1.344,0.169,-0.415,-2.067
5.204,7.481,-1.565,0.037,-0.795,-1.846
5.165,7.947,-1.976,-0.155,-1.349,-1.409
4.307,8.762,-2.968,-0.257,-1.514,-0.83
4.21,10.277,-4.569,-0.224,-1.356,-0.18
4.379,11.961,-5.413,-0.102,-0.933,0.596
5.067,11.677,-6.18,0.06,-0.321,1.034
5.707,11.391,-6.138,0.306,0.027,1.16
5.636,10.783,-5.513,0.505,0.222,1.05
5.595,9.218,-4.138,0.603,0.331,0.86
5.319,7.533,-3.916,0.637,0.255,0.513
5.177,7.755,-3.654,0.701,0.24,0.39
4.65,7.835,-4.046,0.755,0.443,0.315
5.568,7.46,-4.604,0.785,0.579,0.304
5.978,7.063,-5.105,0.779,0.59,0.276
6.306,6.578,-5.376,0.728,0.522,0.24
6.256,5.991,-5.672,0.585,0.391,0.249
6.563,5.542,-5.851,0.372,0.269,0.319
6.698,5.356,-5.98,0.154,0.165,0.39
6.923,5.29,-5.966,-0.026,0.059,0.445
7.201,5.228,-6.052,-0.147,0.07,0.453
7.6,5.169,-5.871,-0.199,0.126,0.434
7.435,5.21,-5.736,-0.215,0.138,0.389
7.857,5.028,-5.719,-0.233,0.208,0.356
7.766,4.941,-5.659,-0.317,0.187,0.294
8.053,4.814,-5.667,-0.448,0.138,0.209
7.86,4.682,-5.468,-0.605,0.103,0.129
8.088,4.736,-5.408,-0.763,0.082,0.063
7.85,5.001,-5.042,-0.872,0.071,0.013
8.272,5.308,-4.781,-0.877,0.124,-0.042
8.018,5.52,-4.305,-0.799,0.21,-0.126
8.319,5.828,-4.157,-0.687,0.262,-0.257
8.329,5.927,-3.83,-0.568,0.344,-0.424
8.263,6.043,-3.68,-0.502,0.318,-0.627
8.092,6.204,-3.654,-0.519,0.293,-0.816
7.947,6.501,-3.633,-0.606,0.213,-0.937
7.616,6.807,-3.423,-0.742,0.125,-1.02
7.198,7.269,-3.101,-0.877,0.058,-1.074
6.696,7.723,-2.729,-0.959,0.011,-1.101
6.139,8.153,-2.198,-0.944,-0.035,-1.07
5.588,8.622,-1.688,-0.797,-0.017,-1.04
5.216,9.012,-1.364,-0.512,-0.004,-0.971
4.705,9.246,-1.314,-0.127,0.032,-0.864
4.534,9.372,-1.546,0.321,0.137,-0.703
4.25,9.365,-1.957,0.741,0.227,-0.514
4.066,9.091,-2.717,0.993,0.329,-0.341
3.852,8.825,-3.598,1.101,0.559,-0.151
3.879,8.536,-4.261,1.133,1.089,0.04
4.296,8.564,-4.945,1.093,1.532,0.203
5.517,8.581,-5.068,1.042,1.592,0.368
6.176,8.596,-5.18,0.968,1.094,0.565
7.069,8.203,-4.974,0.953,0.538,0.823
7.984,7.422,-5.018,0.875,-0.511,1.072
8.093,6.272,-4.974,0.826,-1.505,1.321
7.355,4.898,-5.644,0.818,-1.986,1.506
6.919,3.633,-5.954,0.964,-1.794,1.657
6.106,2.603,-6.58,1.085,-1.688,1.652
5.18,1.903,-7.276,1.228,-1.308,1.572
4.818,1.245,-7.956,1.325,-0.728,1.473
4.65,0.592,-8.413,1.35,-0.286,1.363
4.777,-0.177,-8.77,1.299,0.018,1.276
4.909,-0.98,-8.9,1.231,0.439,1.257
5.38,-1.755,-8.682,1.151,0.72,1.298
5.428,-2.696,-8.237,1.025,0.667,1.309
5.348,-3.427,-7.751,0.885,0.622,1.296
5.056,-4.128,-7.312,0.726,0.562,1.229
5.014,-4.675,-6.902,0.565,0.443,1.106
4.739,-5.24,-6.606,0.41,0.318,0.938
4.672,-5.601,-6.388,0.291,0.295,0.778
4.637,-5.99,-6.147,0.208,0.364,0.638
4.758,-6.28,-5.942,0.171,0.463,0.53
4.873,-6.534,-5.718,0.156,0.533,0.461
4.968,-6.779,-5.479,0.145,0.596,0.432
4.926,-7.001,-5.098,0.139,0.758,0.403
5.014,-7.102,-4.576,0.148,1.074,0.351
5.379,-7.286,-4.125,0.129,1.339,0.317
5.681,-7.485,-3.824,0.075,1.387,0.28
5.926,-7.637,-3.562,0.002,1.332,0.221
6.202,-7.766,-3.511,-0.084,1.229,0.166
6.592,-7.889,-3.607,-0.201,0.93,0.144
6.655,-7.968,-3.682,-0.299,0.638,0.144
6.728,-8.048,-3.674,-0.36,0.506,0.191
6.77,-8.009,-3.644,-0.386,0.441,0.288
6.701,-7.998,-3.487,-0.379,0.374,0.406
6.428,-8.043,-3.345,-0.359,0.311,0.512
6.017,-8.023,-3.17,-0.349,0.23,0.571
5.542,-7.998,-3.014,-0.335,0.202,0.562
5.149,-8.069,-2.941,-0.312,0.233,0.493
4.916,-8.15,-2.941,-0.291,0.232,0.388
4.61,-8.125,-2.931,-0.258,0.225,0.237
4.666,-7.991,-2.823,-0.191,0.267,0.036
4.908,-7.921,-2.66,-0.137,0.331,-0.157
5.206,-7.937,-2.504,-0.127,0.389,-0.318
5.565,-7.941,-2.389,-0.157,0.435,-0.464
6.053,-7.97,-2.381,-0.226,0.432,-0.58
6.425,-8.077,-2.622,-0.335,0.383,-0.65
6.804,-8.079,-2.776,-0.421,0.226,-0.677
6.934,-7.796,-2.953,-0.476,0.044,-0.703
7.07,-7.521,-3.101,-0.494,-0.045,-0.73
7.3,-7.289,-3.166,-0.503,-0.11,-0.761
7.556,-7.158,-3.155,-0.507,-0.208,-0.774
7.781,-6.905,-3.198,-0.517,-0.261,-0.781
8.119,-6.727,-3.288,-0.524,-0.287,-0.754
8.38,-6.478,-3.374,-0.52,-0.337,-0.69
8.543,-6.178,-3.57,-0.506,-0.375,-0.597
8.578,-5.728,-3.783,-0.497,-0.396,-0.497
8.429,-5.32,-4.115,-0.499,-0.348,-0.439
8.489,-5.013,-4.419,-0.49,-0.295,-0.426
8.605,-4.754,-4.759,-0.479,-0.338,-0.431
8.694,-4.571,-5.052,-0.436,-0.37,-0.422
8.792,-4.466,-5.307,-0.356,-0.388,-0.393
8.933,-4.433,-5.544,-0.249,-0.448,-0.329
8.892,-4.427,-5.668,-0.125,-0.51,-0.237
8.824,-4.449,-5.729,0.009,-0.53,-0.118
8.658,-4.525,-5.719,0.136,-0.56,0.004
8.443,-4.653,-5.633,0.25,-0.581,0.132
8.07,-4.806,-5.479,0.344,-0.585,0.236
7.73,-5.037,-5.324,0.405,-0.552,0.314
7.296,-5.282,-5.186,0.42,-0.544,0.353
6.791,-5.556,-5.093,0.386,-0.516,0.34
6.412,-5.784,-5.048,0.321,-0.462,0.262
6.249,-5.988,-5.017,0.23,-0.456,0.159
6.134,-6.148,-5.052,0.143,-0.434,0.057
6.191,-6.321,-5.105,0.079,-0.404,-0.015
6.297,-6.484,-5.16,0.053,-0.39,-0.044
6.236,-6.647,-5.194,0.027,-0.406,-0.033
6.038,-6.781,-5.244,-0.004,-0.384,-0.012
5.903,-6.887,-5.277,-0.051,-0.39,-0.004
5.817,-6.924,-5.325,-0.102,-0.392,-0.006
5.861,-6.937,-5.328,-0.141,-0.423,0.008
5.788,-6.938,-5.391,-0.132,-0.397,0.039
5.783,-7.04,-5.411,-0.077,-0.352,0.095
5.657,-7.09,-5.385,0.004,-0.344,0.178
5.275,-7.213,-5.21,0.108,-0.297,0.261
4.85,-7.327,-4.943,0.202,-0.188,0.324
4.389,-7.528,-4.461,0.249,-0.083,0.349
3.789,-7.724,-3.657,0.24,0.132,0.306
3.481,-7.831,-2.821,0.128,0.532,0.187
3.739,-7.837,-2.542,-0.125,0.774,0.009
3.894,-7.732,-2.42,-0.471,0.816,-0.221
4.165,-7.256,-2.738,-0.877,0.904,-0.519
4.999,-6.443,-3.619,-1.232,0.985,-0.836
5.867,-5.532,-4.729,-1.496,0.685,-1.175
6.165,-4.457,-5.62,-1.637,0.374,-1.536
6.677,-3.29,-6.438,-1.641,0.405,-1.876
7.453,-2.212,-6.911,-1.492,0.473,-2.168
8.436,-1.281,-6.967,-1.251,0.278,-2.399
8.762,-0.403,-6.839,-1.022,0.034,-2.578
9.147,0.502,-6.585,-0.77,0.017,-2.664
9.438,1.283,-6.184,-0.567,0.063,-2.663
9.724,2.124,-5.788,-0.482,-0.078,-2.6
9.184,2.916,-5.555,-0.578,-0.255,-2.529
8.675,3.685,-5.419,-0.713,-0.313,-2.46
8.023,4.549,-5.169,-0.905,-0.314,-2.398
7.457,5.607,-5.092,-1.103,-0.399,-2.367
6.713,6.563,-5.169,-1.234,-0.448,-2.328
6.001,7.54,-5.144,-1.27,-0.358,-2.227
5.6,8.432,-5.147,-1.235,-0.212,-1.998
5.156,8.97,-5.259,-1.126,-0.23,-1.668
4.491,9.258,-5.405,-0.949,-0.276,-1.266
3.971,9.282,-5.5,-0.728,-0.18,-0.821
3.721,9.163,-5.641,-0.472,-0.053,-0.38
3.494,8.96,-5.514,-0.209,0.134,0.01
3.51,8.744,-5.236,-0.002,0.323,0.304
3.72,8.503,-5.03,0.128,0.378,0.496
3.783,8.372,-4.743,0.194,0.28,0.584
3.752,8.26,-4.562,0.189,0.155,0.58
3.632,8.224,-4.66,0.173,0.081,0.503
3.836,8.348,-4.959,0.235,0.135,0.434
3.953,8.356,-4.89,0.294,0.367,0.421
4.534,8.288,-4.618,0.31,1.104,0.574
5.533,7.683,-4.093,0.161,1.591,0.762
6.56,7.434,-2.886,-0.156,2.313,1.07
7.355,6.537,-1.838,-0.642,1.834,1.077
6.695,6.557,-2.726,-0.975,0.725,0.921
6.858,6.359,-2.951,-1.004,0.385,0.732
7.393,6.302,-2.985,-0.927,0.074,0.485
7.513,6.023,-3.694,-0.747,-0.748,0.141
7.546,6.433,-3.939,-0.434,-0.308,0.086
8.936,6.241,-2.384,-0.301,0.467,0.124
9.103,6.099,-1.909,-0.38,0.177,0.076
8.71,6.2,-1.719,-0.382,0.062,0.082
8.707,6.311,-1.487,-0.324,0.241,0.079
8.853,6.21,-1.442,-0.31,0.207,0.051
9.13,5.914,-1.581,-0.261,0.319,0.006
9.314,5.838,-1.455,-0.276,0.203,-0.093
9.383,6.07,-1.529,-0.302,0.143,-0.2
9.385,6.182,-1.476,-0.33,0.083,-0.316
9.23,6.252,-1.325,-0.36,-0.008,-0.438
9.022,6.465,-1.16,-0.369,-0.13,-0.512
8.754,6.72,-1.092,-0.341,-0.204,-0.548
8.405,6.975,-1.048,-0.267,-0.239,-0.566
8.164,7.14,-1.12,-0.163,-0.261,-0.543
7.894,7.299,-1.357,-0.048,-0.223,-0.48
7.661,7.374,-1.581,0.026,-0.202,-0.414
7.591,7.482,-1.779,0.063,-0.176,-0.343
7.466,7.452,-1.977,0.054,-0.164,-0.264
7.434,7.399,-2.138,0.009,-0.195,-0.189
7.366,7.476,-2.272,-0.041,-0.226,-0.122
7.382,7.444,-2.346,-0.066,-0.211,-0.059
7.316,7.45,-2.503,-0.076,-0.22,0.001
7.415,7.418,-2.554,-0.058,-0.17,0.041
7.259,7.36,-2.655,-0.043,-0.141,0.058
7.459,7.341,-2.701,-0.021,-0.089,0.065
7.344,7.266,-2.801,0.004,-0.048,0.064
7.553,7.209,-2.848,0.024,0.015,0.063
7.487,7.112,-3.006,-0.001,-0.0,0.061
7.789,7.116,-3.183,-0.07,-0.062,0.056
7.743,7.037,-3.359,-0.179,-0.275,0.07
7.807,7.12,-3.493,-0.255,-0.482,0.066
8.139,7.121,-3.768,-0.229,-0.88,0.089
8.162,7.285,-4.147,-0.116,-1.181,0.216
8.083,7.329,-4.464,0.117,-1.309,0.406
8.347,7.258,-4.884,0.414,-1.469,0.612
8.5,7.101,-5.756,0.707,-1.602,0.886
7.944,6.496,-6.614,0.95,-1.392,1.195
7.914,5.602,-7.113,1.173,-0.987,1.537
7.756,4.496,-7.488,1.276,-0.689,1.857
7.317,3.115,-7.645,1.305,-0.198,2.149
7.079,1.574,-7.349,1.239,0.195,2.355
7.07,0.238,-6.949,1.111,0.346,2.468
6.924,-0.998,-6.637,0.949,0.138,2.438
6.729,-2.043,-6.412,0.859,-0.129,2.371
6.224,-2.834,-6.339,0.853,-0.387,2.28
5.734,-3.606,-6.111,0.947,-0.366,2.218
5.045,-4.283,-5.781,1.002,-0.163,2.169
4.403,-5.123,-5.493,0.968,0.223,2.119
3.818,-5.837,-5.242,0.809,0.591,2.028
3.526,-6.511,-4.988,0.552,0.79,1.856
3.086,-6.93,-4.98,0.263,0.652,1.605
2.601,-7.306,-5.111,0.049,0.479,1.324
2.185,-7.438,-5.212,-0.067,0.244,1.006
1.856,-7.666,-5.232,-0.066,0.077,0.704
1.654,-7.827,-5.185,0.0,0.007,0.469
1.504,-8.003,-4.981,0.056,0.018,0.292
1.471,-8.076,-4.664,0.103,0.078,0.131
1.624,-8.21,-4.411,0.142,0.092,-0.004
1.782,-8.295,-4.216,0.165,0.051,-0.114
1.897,-8.409,-4.087,0.182,0.004,-0.199
2.122,-8.589,-4.031,0.189,-0.014,-0.258
2.397,-8.714,-3.999,0.177,-0.12,-0.305
2.441,-8.851,-3.885,0.156,-0.203,-0.341
2.502,-8.924,-3.705,0.151,-0.228,-0.381
2.562,-8.933,-3.459,0.153,-0.236,-0.43
2.599,-8.86,-3.153,0.187,-0.235,-0.49
2.662,-8.9,-2.812,0.23,-0.188,-0.56
2.845,-8.826,-2.448,0.28,-0.124,-0.635
3.03,-8.754,-2.041,0.319,-0.025,-0.716
3.27,-8.72,-1.618,0.354,0.103,-0.825
3.738,-8.954,-1.443,0.353,0.269,-0.937
4.572,-9.2,-1.314,0.289,0.293,-1.04
5.363,-9.357,-1.284,0.159,0.205,-1.101
6.086,-9.44,-1.367,0.009,0.034,-1.097
6.553,-9.41,-1.337,-0.126,-0.108,-1.019
6.849,-9.007,-1.168,-0.212,-0.235,-0.931
6.813,-8.635,-0.958,-0.209,-0.284,-0.836
6.745,-8.291,-0.844,-0.132,-0.244,-0.781
6.751,-8.041,-0.706,-0.03,-0.114,-0.764
7.066,-7.839,-0.714,0.054,0.007,-0.8
7.564,-7.848,-0.667,0.069,0.063,-0.788
7.985,-7.668,-0.701,0.005,0.075,-0.728
8.303,-7.495,-0.636,-0.117,0.108,-0.621
8.59,-7.215,-0.636,-0.284,0.073,-0.517
8.639,-6.981,-0.735,-0.47,0.031,-0.426
8.593,-6.773,-0.943,-0.629,0.054,-0.411
8.79,-6.564,-1.042,-0.751,0.05,-0.443
9.193,-6.22,-1.067,-0.807,-0.072,-0.461
9.366,-5.975,-1.16,-0.779,-0.118,-0.465
9.723,-5.778,-1.182,-0.697,-0.09,-0.407
9.871,-5.452,-1.165,-0.589,-0.133,-0.279
9.708,-5.112,-1.203,-0.463,-0.095,-0.095
9.257,-4.985,-1.375,-0.348,0.02,0.043
8.979,-5.027,-1.503,-0.262,0.277,0.078
9.032,-5.13,-1.589,-0.257,0.445,0.026
9.597,-5.154,-1.576,-0.323,0.448,-0.019
9.801,-5.078,-1.646,-0.439,0.284,-0.052
9.819,-5.02,-1.863,-0.508,0.223,-0.102
9.911,-4.853,-1.929,-0.533,0.083,-0.118
9.706,-4.665,-2.036,-0.479,-0.035,-0.132
9.321,-4.661,-2.065,-0.351,0.019,-0.187
9.529,-4.887,-2.094,-0.19,0.104,-0.244
9.758,-5.163,-2.014,-0.101,0.123,-0.233
10.197,-5.52,-1.989,-0.094,0.037,-0.155
10.55,-5.658,-1.884,-0.144,-0.211,0.008
10.542,-5.71,-1.953,-0.205,-0.471,0.22
10.097,-5.775,-2.075,-0.246,-0.536,0.396
9.929,-5.781,-2.082,-0.282,-0.607,0.537
9.469,-5.691,-2.163,-0.313,-0.724,0.656
8.904,-5.85,-2.332,-0.313,-0.665,0.74
8.423,-6.118,-2.486,-0.315,-0.589,0.774
8.173,-6.404,-2.61,-0.325,-0.542,0.795
7.742,-6.724,-2.763,-0.33,-0.482,0.803
7.399,-7.123,-2.901,-0.314,-0.354,0.821
7.035,-7.372,-2.983,-0.296,-0.318,0.855
6.575,-7.579,-3.081,-0.264,-0.255,0.898
6.095,-7.779,-3.125,-0.218,-0.189,0.933
5.736,-7.978,-3.166,-0.162,-0.122,0.961
5.248,-8.154,-3.159,-0.126,-0.079,0.969
4.781,-8.319,-3.199,-0.105,0.036,0.953
4.377,-8.526,-3.196,-0.116,0.101,0.913
3.969,-8.657,-3.234,-0.157,0.115,0.845
3.561,-8.732,-3.29,-0.207,0.112,0.76
3.213,-8.719,-3.37,-0.251,0.108,0.665
2.906,-8.722,-3.431,-0.289,0.088,0.56
2.647,-8.641,-3.559,-0.319,0.107,0.438
2.513,-8.584,-3.616,-0.347,0.107,0.303
2.434,-8.489,-3.676,-0.381,0.084,0.146
2.374,-8.472,-3.665,-0.409,0.078,-0.025
2.362,-8.484,-3.668,-0.452,0.112,-0.203
2.557,-8.597,-3.676,-0.499,0.173,-0.374
2.925,-8.864,-3.657,-0.528,0.201,-0.479
3.347,-9.041,-3.68,-0.534,0.159,-0.46
3.614,-9.092,-3.869,-0.524,0.163,-0.353
3.987,-9.122,-4.023,-0.475,0.143,-0.182
4.075,-9.023,-4.081,-0.398,0.063,0.025
3.961,-8.748,-4.18,-0.311,0.028,0.221
3.698,-8.555,-4.268,-0.234,0.079,0.35
3.652,-8.422,-4.281,-0.139,0.043,0.45
3.269,-8.275,-4.245,-0.036,-0.062,0.519
2.806,-8.146,-4.182,0.078,-0.043,0.552
2.404,-8.106,-3.989,0.163,0.095,0.526
2.242,-8.009,-3.678,0.217,0.234,0.41
2.148,-7.979,-3.407,0.224,0.405,0.209
2.419,-8.053,-3.238,0.211,0.6,-0.042
3.228,-8.411,-3.22,0.198,0.599,-0.25
4.001,-9.165,-3.345,0.201,0.399,-0.345
4.616,-9.95,-3.564,0.191,0.155,-0.265
4.931,-10.361,-3.608,0.149,-0.071,-0.049
4.994,-10.406,-3.468,0.077,-0.324,0.22
4.449,-10.064,-3.153,-0.033,-0.505,0.418
3.812,-9.284,-2.821,-0.131,-0.542,0.501
3.077,-8.822,-2.436,-0.18,-0.558,0.473
2.395,-8.773,-2.016,-0.151,-0.569,0.415
1.773,-8.736,-1.846,-0.111,-0.534,0.343
1.357,-8.671,-1.785,-0.04,-0.412,0.23
1.118,-8.578,-1.803,0.044,-0.401,0.061
0.895,-8.335,-1.769,0.153,-0.376,-0.166
1.053,-8.298,-1.588,0.342,-0.361,-0.427
1.352,-8.683,-1.085,0.598,-0.354,-0.594
1.575,-9.597,-0.578,0.74,-0.44,-0.592
1.738,-10.428,-0.117,0.746,-0.271,-0.456
2.218,-11.107,0.411,0.638,-0.119,-0.214
2.327,-11.273,0.613,0.358,-0.056,0.048
2.304,-11.101,0.532,0.007,-0.013,0.252
2.291,-10.352,0.276,-0.239,0.046,0.388
2.051,-9.928,0.127,-0.332,-0.076,0.509
1.458,-9.702,-0.175,-0.364,-0.215,0.609
0.85,-9.851,-0.402,-0.351,-0.314,0.7
0.386,-9.817,-0.314,-0.287,-0.335,0.728
-0.016,-9.676,0.14,-0.213,-0.278,0.668
-0.31,-9.337,0.612,-0.158,-0.128,0.536
-0.448,-9.118,0.975,-0.084,0.077,0.367
-0.478,-8.957,1.234,-0.028,0.225,0.188
-0.676,-9.153,1.204,-0.055,0.279,0.028
-0.596,-9.522,0.989,-0.113,0.231,-0.08
-0.578,-9.886,0.718,-0.204,0.046,-0.157
-0.902,-9.892,0.477,-0.283,0.214,-0.212
-0.88,-9.779,0.379,-0.303,0.72,-0.261
-0.684,-9.591,0.418,-0.251,1.272,-0.299
-0.273,-9.495,0.51,-0.198,1.563,-0.323
0.053,-9.405,0.545,-0.146,1.513,-0.355
0.462,-9.614,0.624,-0.119,1.152,-0.391
0.66,-9.793,0.605,-0.152,0.611,-0.432
0.713,-10.002,0.462,-0.232,0.107,-0.487
0.387,-10.13,0.142,-0.327,-0.15,-0.598
0.601,-10.028,-0.061,-0.408,-0.044,-0.724
1.264,-9.733,-0.18,-0.492,-0.116,-0.83
1.571,-9.43,-0.357,-0.531,-0.133,-0.923
2.333,-9.332,-0.442,-0.52,-0.001,-0.954
3.328,-9.322,-0.419,-0.5,0.017,-0.878
3.787,-9.405,-0.616,-0.512,-0.071,-0.741
3.927,-9.513,-0.875,-0.513,-0.031,-0.61
4.37,-9.584,-1.063,-0.521,-0.097,-0.496
4.512,-9.369,-1.416,-0.57,-0.371,-0.421
4.407,-9.098,-1.768,-0.601,-0.534,-0.376
4.217,-9.036,-1.928,-0.603,-0.587,-0.355
4.166,-9.011,-2.065,-0.577,-0.498,-0.345
4.371,-8.936,-2.213,-0.569,-0.454,-0.333
4.308,-8.816,-2.204,-0.591,-0.436,-0.326
3.98,-8.49,-2.08,-0.692,-0.292,-0.393
3.955,-7.693,-1.918,-0.834,-0.016,-0.561
4.404,-6.622,-2.224,-1.016,0.187,-0.808
5.035,-5.988,-2.575,-1.149,0.358,-1.101
6.291,-5.696,-3.284,-1.224,0.523,-1.372
7.794,-5.941,-4.21,-1.182,0.669,-1.445
9.281,-6.369,-5.239,-1.072,0.738,-1.253
9.988,-6.639,-5.754,-0.928,0.605,-0.928
10.135,-6.332,-6.125,-0.75,0.36,-0.573
9.573,-5.968,-6.193,-0.52,0.13,-0.259
9.049,-5.449,-6.025,-0.265,-0.058,-0.054
8.666,-5.284,-5.821,-0.018,-0.271,0.047
8.449,-5.61,-5.481,0.194,-0.422,0.134
8.518,-6.134,-5.294,0.321,-0.444,0.292
8.543,-6.482,-5.029,0.385,-0.615,0.503
8.447,-6.669,-4.809,0.418,-0.758,0.731
8.108,-6.681,-4.343,0.438,-0.923,0.94
7.664,-6.557,-3.777,0.475,-0.892,1.148
6.802,-6.567,-2.948,0.46,-0.775,1.323
6.058,-6.714,-2.734,0.385,-0.573,1.481
4.954,-7.164,-2.888,0.266,-0.686,1.572
3.757,-7.627,-3.157,0.161,-0.972,1.564
2.941,-8.124,-3.126,0.034,-1.765,1.436
1.312,-8.321,-3.182,-0.172,-3.057,1.08
-0.704,-8.403,-3.323,-0.271,-3.282,0.738
-1.432,-8.46,-2.811,-0.289,-2.875,0.429
-2.211,-8.356,-2.429,-0.326,-2.216,0.15
-2.723,-8.247,-2.497,-0.274,-1.028,-0.041
-2.084,-8.391,-2.663,-0.13,0.234,-0.053
-1.372,-8.551,-2.278,-0.087,0.437,-0.122
-1.449,-8.669,-2.182,-0.108,0.361,-0.207
-0.996,-8.935,-2.132,-0.122,0.205,-0.266
-0.833,-9.183,-2.319,-0.197,-0.201,-0.305
-1.032,-9.206,-2.561,-0.224,-0.281,-0.297
-0.87,-9.254,-2.716,-0.195,-0.124,-0.26
-0.566,-9.145,-2.861,-0.177,-0.092,-0.228
-0.501,-9.009,-2.93,-0.2,-0.168,-0.21
-0.619,-8.923,-2.924,-0.232,-0.143,-0.214
-0.483,-8.972,-2.898,-0.25,-0.044,-0.228
-0.275,-9.127,-2.821,-0.258,-0.063,-0.233
-0.218,-9.264,-2.745,-0.234,-0.092,-0.201
-0.163,-9.403,-2.756,-0.2,-0.046,-0.126
-0.145,-9.343,-2.825,-0.199,-0.024,-0.053
-0.193,-9.213,-2.929,-0.234,-0.031,-0.029
-0.189,-9.055,-3.081,-0.281,-0.099,-0.054
-0.243,-8.958,-3.147,-0.32,-0.173,-0.117
-0.276,-8.927,-3.06,-0.329,-0.193,-0.176
-0.344,-9.05,-2.85,-0.317,-0.14,-0.204
-0.324,-9.203,-2.576,-0.284,-0.006,-0.193
-0.235,-9.294,-2.357,-0.267,0.129,-0.149
-0.184,-9.315,-2.321,-0.294,0.197,-0.094
-0.112,-9.246,-2.448,-0.339,0.291,-0.056
0.102,-9.089,-2.608,-0.402,0.326,-0.044
0.293,-8.791,-2.906,-0.518,0.345,-0.067
0.5,-8.782,-3.345,-0.631,0.336,-0.108
0.723,-8.834,-3.883,-0.69,0.175,-0.13
0.64,-8.889,-4.278,-0.68,-0.019,-0.137
0.564,-8.969,-4.672,-0.575,-0.012,-0.118
0.635,-9.132,-4.839,-0.412,-0.051,-0.057
0.539,-8.903,-4.787,-0.28,-0.088,0.033
0.358,-8.55,-4.582,-0.224,0.08,0.083
0.5,-8.271,-4.494,-0.23,0.221,0.08
0.582,-8.039,-4.493,-0.308,0.085,0.024
0.459,-7.826,-4.65,-0.388,-0.076,-0.068
0.395,-7.868,-4.841,-0.424,-0.09,-0.18
0.569,-8.021,-5.078,-0.423,-0.184,-0.269
0.538,-8.148,-5.252,-0.427,-0.311,-0.31
0.519,-8.322,-5.359,-0.425,-0.319,-0.311
0.644,-8.53,-5.354,-0.417,-0.328,-0.288
0.688,-8.41,-5.33,-0.441,-0.435,-0.25
0.645,-8.238,-5.098,-0.48,-0.424,-0.213
0.631,-7.973,-4.956,-0.555,-0.34,-0.178
0.528,-7.681,-4.868,-0.681,-0.286,-0.165
0.354,-7.519,-5.008,-0.82,-0.214,-0.184
0.168,-7.555,-5.23,-0.97,-0.197,-0.239
-0.191,-7.377,-5.787,-1.146,-0.183,-0.332
-0.216,-7.223,-6.175,-1.301,-0.224,-0.469
-0.228,-6.914,-6.68,-1.424,-0.328,-0.631
-0.146,-6.388,-7.145,-1.521,-0.433,-0.785
-0.043,-5.777,-7.609,-1.596,-0.526,-0.922
0.029,-5.241,-7.939,-1.698,-0.705,-1.04
-0.204,-4.554,-8.391,-1.836,-0.93,-1.158
-0.45,-3.78,-8.675,-1.981,-1.121,-1.292
-0.88,-2.881,-8.805,-2.141,-1.261,-1.467
-1.166,-1.802,-8.97,-2.259,-1.273,-1.671
-1.347,-0.685,-9.119,-2.248,-1.182,-1.891
-1.469,0.363,-9.227,-2.098,-0.883,-2.082
-1.371,1.212,-9.367,-1.814,-0.421,-2.19
-1.028,1.738,-9.424,-1.455,0.093,-2.18
-0.666,1.9,-9.251,-1.089,0.577,-2.068
-0.058,1.772,-9.007,-0.791,1.034,-1.895
0.81,1.482,-8.905,-0.591,1.425,-1.738
1.837,1.192,-8.871,-0.494,1.516,-1.595
2.492,1.026,-8.941,-0.472,1.415,-1.429
3.23,0.99,-9.183,-0.458,1.298,-1.209
3.822,1.006,-9.5,-0.42,1.075,-0.89
4.086,1.068,-9.567,-0.354,0.718,-0.47
4.054,1.089,-9.531,-0.291,0.474,-0.029
4.144,1.067,-9.494,-0.239,0.26,0.35
3.86,1.056,-9.425,-0.216,0.013,0.606
3.503,1.032,-9.34,-0.208,-0.133,0.712
3.183,0.959,-9.353,-0.209,-0.22,0.708
2.815,0.9,-9.349,-0.212,-0.242,0.641
2.512,0.854,-9.351,-0.212,-0.213,0.538
2.366,0.809,-9.392,-0.213,-0.164,0.425
2.198,0.795,-9.446,-0.215,-0.138,0.307
2.13,0.777,-9.495,-0.214,-0.082,0.185
2.126,0.791,-9.517,-0.213,-0.073,0.05
2.18,0.813,-9.53,-0.208,-0.032,-0.089
2.299,0.815,-9.519,-0.206,-0.003,-0.22
2.491,0.876,-9.478,-0.208,0.009,-0.33
2.637,0.633,-9.396,-0.199,0.033,-0.407
2.851,0.5,-9.284,-0.204,0.048,-0.452
2.988,0.51,-9.277,-0.213,0.083,-0.467
3.226,0.53,-9.259,-0.219,0.13,-0.45
3.405,0.565,-9.279,-0.218,0.159,-0.415
3.587,0.899,-9.35,-0.212,0.175,-0.363
3.739,1.06,-9.43,-0.187,0.209,-0.282
3.856,0.921,-9.433,-0.154,0.184,-0.186
3.859,0.742,-9.373,-0.122,0.124,-0.116
3.824,0.53,-9.321,-0.107,0.109,-0.079
3.812,0.392,-9.229,-0.118,0.096,-0.073
3.736,0.372,-9.315,-0.112,0.212,-0.092
4.027,0.435,-9.189,-0.065,0.507,-0.089
4.49,0.451,-8.978,-0.028,0.787,-0.015
5.018,0.354,-8.641,-0.02,1.067,0.154
5.624,0.089,-8.29,-0.02,1.408,0.374
6.388,-0.266,-7.743,-0.068,1.724,0.588
7.053,-0.568,-7.196,-0.18,1.984,0.757
7.954,-0.863,-6.573,-0.306,2.259,0.872
8.799,-1.043,-5.844,-0.429,2.421,0.927
9.626,-1.172,-4.936,-0.57,2.472,0.963
10.274,-1.314,-4.008,-0.724,2.395,1.015
10.789,-1.58,-3.139,-0.884,2.175,1.063
10.801,-1.807,-2.416,-1.035,1.98,1.082
10.888,-2.257,-1.772,-1.137,1.893,1.076
10.928,-2.63,-1.204,-1.215,1.809,1.039
10.836,-3.049,-0.587,-1.23,1.748,1.015
10.614,-3.405,-0.059,-1.221,1.739,0.982
10.412,-3.884,0.607,-1.189,1.714,0.96
10.154,-4.225,1.073,-1.157,1.603,0.935
9.696,-4.796,1.435,-1.09,1.481,0.905
9.342,-5.334,1.673,-1.009,1.399,0.835
9.002,-5.946,1.951,-0.908,1.264,0.749
8.728,-6.438,2.099,-0.793,1.108,0.636
8.403,-6.825,2.325,-0.689,1.019,0.522
8.367,-7.032,2.469,-0.577,0.854,0.402
8.065,-7.175,2.67,-0.484,0.668,0.284
8.039,-7.188,2.892,-0.4,0.521,0.178
7.847,-7.137,3.029,-0.35,0.384,0.104
7.773,-7.188,3.127,-0.301,0.253,0.054
7.491,-7.247,3.32,-0.285,0.222,0.035
7.528,-7.36,3.397,-0.284,0.169,0.019
7.286,-7.441,3.441,-0.296,0.147,0.014
7.227,-7.573,3.624,-0.305,0.084,0.011
7.042,-7.666,3.741,-0.345,0.064,-0.004
6.97,-7.71,3.756,-0.388,0.058,-0.029
6.878,-7.724,3.743,-0.432,0.072,-0.045
6.798,-7.68,3.719,-0.466,0.066,-0.034
6.76,-7.604,3.558,-0.51,0.184,-0.014
6.794,-7.567,3.534,-0.54,0.257,0.035
6.756,-7.564,3.48,-0.586,0.313,0.094
6.714,-7.613,3.439,-0.64,0.373,0.142
6.769,-7.73,3.296,-0.712,0.381,0.164
6.723,-7.852,3.146,-0.767,0.33,0.181
6.691,-7.968,2.894,-0.823,0.203,0.186
6.595,-7.991,2.608,-0.878,0.068,0.193
6.529,-7.959,2.284,-0.921,-0.092,0.199
6.38,-7.982,1.828,-0.949,-0.314,0.178
6.394,-8.01,1.296,-0.964,-0.543,0.124
6.371,-8.059,0.751,-0.959,-0.838,0.048
6.323,-8.118,0.209,-0.917,-1.23,-0.039
6.095,-8.255,-0.399,-0.855,-1.663,-0.144
5.82,-8.285,-0.924,-0.797,-1.938,-0.256
5.637,-8.236,-1.628,-0.737,-2.153,-0.363
