ax,ay,az,gx,gy,gz
-3.556,-1.233,-7.832,-0.065,-0.082,0.009
-3.654,-1.219,-7.77,-0.065,-0.194,-0.018
-3.827,-1.199,-7.725,-0.061,-0.259,-0.035
-3.999,-1.195,-7.661,-0.049,-0.29,-0.06
-4.179,-1.208,-7.592,-0.036,-0.276,-0.081
-4.312,-1.276,-7.505,-0.013,-0.222,-0.095
-4.363,-1.313,-7.443,-0.003,-0.154,-0.101
-4.487,-1.38,-7.419,-0.003,-0.064,-0.107
-4.443,-1.421,-7.409,-0.013,0.002,-0.101
-4.373,-1.441,-7.398,-0.018,0.019,-0.094
-4.394,-1.455,-7.406,-0.016,0.035,-0.096
-4.449,-1.476,-7.421,-0.004,0.072,-0.112
-4.329,-1.506,-7.423,0.028,0.138,-0.146
-4.267,-1.546,-7.445,0.085,0.193,-0.192
-4.151,-1.664,-7.506,0.155,0.223,-0.224
-3.959,-1.854,-7.552,0.207,0.26,-0.258
-3.669,-2.042,-7.645,0.218,0.197,-0.267
-3.537,-2.205,-7.671,0.207,0.033,-0.28
-3.65,-2.242,-7.815,0.153,-0.186,-0.259
-3.878,-2.344,-7.685,0.117,-0.34,-0.308
-4.121,-2.442,-7.462,0.095,-0.454,-0.377
-4.335,-2.657,-7.364,0.071,-0.459,-0.415
-4.389,-2.849,-7.248,0.035,-0.503,-0.394
-4.439,-3.148,-6.93,0.004,-0.565,-0.381
-4.619,-3.334,-6.727,-0.09,-0.654,-0.249
-4.845,-3.272,-6.624,-0.234,-0.791,-0.05
-5.277,-2.865,-6.333,-0.377,-1.1,0.104
-6.14,-2.489,-6.106,-0.502,-1.494,0.333
-7.379,-1.824,-5.914,-0.596,-1.305,0.624
-7.725,-0.906,-5.735,-0.619,-1.135,0.793
-8.311,-0.177,-5.493,-0.55,-0.973,0.899
-8.46,0.382,-5.207,-0.43,-0.629,1.009
-8.412,0.998,-4.865,-0.289,-0.13,1.0
-7.527,1.291,-4.377,-0.152,-0.06,0.924
-7.535,1.384,-4.145,-0.045,0.034,0.887
-7.152,1.451,-3.95,0.041,0.14,0.855
-7.17,1.491,-3.848,0.118,0.173,0.815
-6.943,1.497,-3.902,0.195,0.163,0.774
-7.035,1.641,-4.109,0.29,0.068,0.722
-6.993,1.645,-4.124,0.367,-0.173,0.651
-7.025,1.709,-4.121,0.417,-0.295,0.582
-6.908,1.745,-4.112,0.434,-0.509,0.521
-7.001,1.777,-3.99,0.412,-0.575,0.48
-7.082,1.668,-3.845,0.357,-0.71,0.41
-6.995,1.586,-3.695,0.304,-0.616,0.358
-6.883,1.453,-3.546,0.278,-0.645,0.293
-6.822,1.31,-3.297,0.3,-0.538,0.233
-6.647,1.236,-3.019,0.36,-0.487,0.19
-6.471,1.314,-2.819,0.439,-0.372,0.225
-6.586,1.594,-2.781,0.552,-0.366,0.302
-6.555,1.855,-2.716,0.632,-0.419,0.442
-6.806,2.045,-2.766,0.633,-0.533,0.582
-7.148,2.259,-2.833,0.552,-0.583,0.702
-7.413,2.431,-2.795,0.402,-0.488,0.781
-7.332,2.574,-2.657,0.195,-0.466,0.833
-7.7,2.896,-2.588,-0.006,-0.351,0.866
-7.511,3.223,-2.433,-0.177,-0.069,0.903
-7.115,3.562,-2.359,-0.295,-0.001,0.929
-6.85,3.941,-2.299,-0.346,0.041,0.973
-6.75,4.635,-2.302,-0.332,0.241,1.068
-6.013,5.315,-2.225,-0.282,0.347,1.177
-5.481,6.204,-2.25,-0.184,0.072,1.26
-5.384,7.062,-2.242,-0.044,0.072,1.288
-4.568,7.726,-2.218,0.085,-0.024,1.235
-3.835,7.876,-2.133,0.188,-0.397,1.043
-3.644,8.03,-2.09,0.25,-0.619,0.772
-3.487,8.111,-2.048,0.251,-0.521,0.517
-3.033,7.929,-1.988,0.153,-0.546,0.348
-3.29,7.581,-2.034,-0.001,-0.478,0.252
-3.452,7.455,-2.044,-0.177,-0.057,0.251
-3.259,7.445,-2.144,-0.312,0.216,0.28
-3.152,7.311,-2.19,-0.406,0.324,0.253
-3.105,7.288,-2.248,-0.46,0.387,0.137
-2.998,7.589,-2.284,-0.496,0.45,-0.026
-2.902,7.853,-2.368,-0.53,0.414,-0.201
-2.986,8.315,-2.373,-0.58,0.444,-0.341
-2.915,8.284,-2.188,-0.575,0.502,-0.467
-2.866,8.444,-1.876,-0.525,0.567,-0.481
-2.882,8.853,-1.513,-0.366,0.51,-0.386
-2.767,8.993,-1.006,-0.13,0.273,-0.26
-2.637,8.439,-0.504,0.086,-0.102,-0.182
-2.882,8.566,-0.197,0.214,-0.383,-0.087
-2.975,8.659,0.048,0.316,-0.546,-0.031
-2.972,8.457,0.274,0.351,-0.651,-0.008
-3.078,8.423,0.36,0.314,-0.624,0.045
-3.131,8.637,0.434,0.266,-0.572,0.125
-3.082,8.608,0.451,0.212,-0.554,0.214
-3.11,8.404,0.377,0.138,-0.551,0.308
-3.09,8.202,0.281,0.046,-0.495,0.399
-3.078,8.106,0.178,-0.038,-0.456,0.484
-3.249,8.034,0.025,-0.1,-0.333,0.606
-3.332,8.177,-0.137,-0.127,-0.187,0.737
-3.341,8.343,-0.275,-0.111,-0.14,0.807
-3.436,8.501,-0.432,-0.076,-0.174,0.797
-3.604,8.618,-0.648,-0.011,-0.169,0.697
-3.549,8.804,-0.795,0.086,-0.198,0.504
-3.605,9.54,-0.909,0.189,-0.302,0.315
-3.606,9.216,-1.107,0.267,-0.434,0.062
-3.7,8.829,-1.278,0.267,-0.317,-0.234
-3.406,8.76,-1.295,0.284,-0.106,-0.54
-3.063,8.625,-1.273,0.308,-0.074,-0.81
-2.792,7.939,-1.334,0.261,-0.048,-1.067
-2.781,8.321,-1.359,0.16,0.149,-1.209
-2.404,8.44,-1.268,0.083,0.238,-1.255
-2.291,8.064,-1.239,-0.079,0.199,-1.181
-2.418,7.679,-1.337,-0.295,0.323,-0.971
-2.447,7.202,-1.396,-0.454,0.514,-0.663
-2.239,6.818,-1.419,-0.551,0.584,-0.287
-2.329,6.802,-1.635,-0.593,0.486,0.125
-2.528,7.053,-1.922,-0.573,0.373,0.491
-2.699,7.469,-2.164,-0.499,0.281,0.756
-2.512,7.899,-2.26,-0.378,-0.099,0.853
-3.478,8.617,-2.384,-0.177,-0.75,0.706
-4.19,9.027,-2.252,0.01,-0.775,0.549
-4.283,8.96,-1.877,0.167,-0.782,0.344
-4.361,8.819,-1.499,0.219,-0.653,0.15
-4.632,8.552,-1.124,0.213,-0.276,-0.058
-3.934,8.067,-0.665,0.102,0.46,-0.118
-3.402,8.158,-0.34,0.004,0.669,-0.212
-3.265,8.66,-0.164,-0.069,0.809,-0.282
-2.99,8.672,0.037,-0.095,0.667,-0.422
-2.948,8.62,0.136,-0.157,0.569,-0.529
-2.772,8.614,0.212,-0.229,0.493,-0.603
-2.545,8.28,0.183,-0.306,0.344,-0.625
-2.511,7.765,0.07,-0.394,0.243,-0.57
-2.65,7.671,-0.143,-0.456,0.311,-0.393
-2.668,7.853,-0.397,-0.435,0.366,-0.136
-2.666,7.993,-0.688,-0.35,0.283,0.14
-2.91,8.713,-0.977,-0.264,0.151,0.431
-3.372,9.322,-1.562,-0.159,0.031,0.671
-3.704,9.066,-1.821,-0.062,0.049,0.697
-3.613,8.919,-1.836,0.01,0.247,0.595
-3.375,8.85,-1.786,0.153,0.195,0.387
-3.056,8.162,-1.635,0.315,-0.059,0.042
-2.796,7.888,-1.184,0.362,-0.264,-0.362
-2.717,8.402,-1.059,0.32,-0.373,-0.653
-2.798,8.318,-1.008,0.205,-0.452,-0.856
-2.948,7.988,-0.957,-0.057,-0.217,-0.913
-3.035,7.711,-1.026,-0.362,0.241,-0.812
-2.964,7.282,-1.118,-0.597,0.701,-0.583
-2.814,7.064,-1.175,-0.773,0.997,-0.256
-2.948,7.234,-1.385,-0.874,1.164,0.097
-3.201,7.581,-1.658,-0.883,1.182,0.336
-3.427,8.286,-1.856,-0.847,1.177,0.476
-3.811,8.33,-2.008,-0.756,1.287,0.396
-3.687,8.423,-1.921,-0.674,1.446,0.226
-3.584,8.776,-1.747,-0.56,1.47,0.03
-3.417,8.742,-1.411,-0.434,1.498,-0.184
-3.16,8.336,-1.02,-0.326,1.549,-0.422
-2.673,8.472,-0.562,-0.26,1.404,-0.551
-2.72,8.543,-0.238,-0.19,1.178,-0.642
-2.774,8.53,0.062,-0.161,1.079,-0.692
-2.666,8.67,0.308,-0.188,1.061,-0.681
-2.603,8.676,0.492,-0.26,0.974,-0.665
-2.659,8.798,0.567,-0.376,0.949,-0.635
-2.629,8.761,0.602,-0.497,0.964,-0.61
-2.467,8.614,0.571,-0.628,0.929,-0.591
-2.518,8.543,0.425,-0.755,0.876,-0.55
-2.622,8.558,0.243,-0.848,0.915,-0.469
-2.624,8.525,0.059,-0.888,0.937,-0.371
-2.668,8.543,-0.155,-0.882,0.918,-0.279
-2.756,8.525,-0.338,-0.84,0.895,-0.217
-2.883,8.674,-0.447,-0.785,0.914,-0.148
-3.048,8.771,-0.641,-0.72,0.937,-0.056
-3.161,8.468,-0.804,-0.673,1.019,-0.017
-3.181,8.343,-0.944,-0.637,1.123,-0.027
-3.108,8.399,-1.047,-0.582,1.142,-0.054
-3.092,8.196,-1.256,-0.515,1.042,-0.101
-3.125,8.066,-1.394,-0.481,0.988,-0.192
-3.091,8.428,-1.536,-0.464,0.974,-0.263
-3.052,8.574,-1.639,-0.444,0.723,-0.324
-3.574,8.285,-1.844,-0.437,0.631,-0.403
-3.481,7.94,-1.743,-0.487,0.956,-0.413
-3.146,7.7,-1.607,-0.515,1.081,-0.347
-3.117,7.425,-1.437,-0.489,1.015,-0.217
-3.162,7.215,-1.27,-0.46,1.187,-0.033
-2.691,7.392,-1.011,-0.445,1.242,0.166
-2.702,7.718,-0.957,-0.39,0.902,0.238
-2.916,7.945,-0.897,-0.351,0.655,0.185
-3.08,8.805,-0.904,-0.353,0.531,0.102
-3.132,9.082,-0.892,-0.307,0.382,-0.068
-2.967,9.076,-0.789,-0.316,0.297,-0.288
-2.998,9.214,-0.906,-0.363,0.234,-0.48
-3.009,9.131,-0.893,-0.393,0.327,-0.648
-2.711,8.48,-0.754,-0.399,0.492,-0.799
-2.543,8.687,-0.631,-0.412,0.619,-0.794
-2.576,8.975,-0.585,-0.327,0.626,-0.666
-2.398,8.779,-0.295,-0.205,0.63,-0.511
-2.244,8.664,-0.18,-0.105,0.517,-0.34
-2.248,8.47,-0.126,0.004,0.31,-0.189
-2.255,8.393,-0.049,0.092,0.073,-0.075
-2.342,8.357,-0.045,0.135,-0.173,0.05
-2.629,8.174,-0.259,0.117,-0.37,0.182
-2.886,8.067,-0.454,0.059,-0.368,0.278
-2.984,8.269,-0.605,-0.005,-0.348,0.351
-3.099,8.137,-0.943,-0.048,-0.427,0.376
-3.346,7.785,-1.287,-0.079,-0.466,0.31
-3.569,8.0,-1.415,-0.054,-0.402,0.218
-3.683,8.29,-1.4,0.041,-0.386,0.166
-3.72,8.228,-1.374,0.12,-0.366,0.111
-3.711,8.08,-1.189,0.149,-0.258,0.041
-3.546,8.136,-0.928,0.142,-0.103,-0.01
-3.244,8.089,-0.753,0.111,-0.006,-0.039
-3.026,8.084,-0.687,0.059,-0.029,-0.049
-3.045,8.126,-0.718,0.013,-0.067,-0.022
-3.063,8.127,-0.796,-0.032,-0.037,0.013
-3.11,8.122,-0.887,-0.061,0.004,0.038
-3.139,8.184,-0.906,-0.067,0.029,0.057
-3.182,8.211,-0.93,-0.058,0.04,0.052
-3.126,8.208,-0.884,-0.052,0.03,0.022
-3.115,8.189,-0.843,-0.048,0.011,-0.007
-3.052,8.2,-0.811,-0.056,0.013,-0.021
-3.006,8.153,-0.832,-0.069,0.02,-0.026
-2.97,8.165,-0.864,-0.093,0.013,-0.01
-3.028,8.101,-0.913,-0.113,0.056,0.035
-3.077,7.848,-0.873,-0.134,0.143,0.09
-3.246,7.849,-0.739,-0.161,0.334,0.188
-3.374,8.312,-0.613,-0.159,0.549,0.337
-3.3,8.549,-0.435,-0.097,0.638,0.456
-3.219,8.477,-0.308,-0.036,0.546,0.452
-3.175,8.609,-0.25,0.005,0.432,0.361
-3.036,8.748,-0.212,0.086,0.185,0.18
-2.88,9.071,-0.163,0.151,-0.123,-0.0
-2.916,8.437,-0.259,0.146,-0.449,-0.22
-3.091,8.264,-0.344,0.026,-0.354,-0.369
-2.97,8.718,-0.54,-0.065,-0.23,-0.482
-2.774,8.732,-0.835,-0.147,-0.152,-0.587
-2.635,8.019,-1.147,-0.257,-0.104,-0.755
-2.683,8.485,-1.388,-0.376,0.13,-0.779
-2.705,8.661,-1.841,-0.358,0.239,-0.687
-2.699,8.111,-2.174,-0.305,0.139,-0.535
-2.995,7.785,-2.276,-0.261,0.002,-0.323
-3.274,7.559,-2.205,-0.191,0.03,-0.064
-3.277,7.242,-2.154,-0.09,0.15,0.16
-2.951,7.227,-1.853,-0.013,0.094,0.359
-3.043,7.489,-1.594,0.059,0.037,0.553
-2.993,8.035,-1.485,0.132,0.062,0.686
-2.897,8.537,-1.491,0.24,-0.096,0.704
-2.771,8.609,-1.276,0.323,-0.461,0.547
-3.09,9.009,-1.183,0.327,-0.728,0.307
-3.219,8.969,-1.087,0.296,-0.717,-0.017
-2.99,8.492,-0.88,0.215,-0.615,-0.346
-2.934,8.572,-0.721,0.107,-0.448,-0.532
-2.925,9.045,-0.724,0.075,-0.282,-0.542
-2.584,8.653,-0.605,0.112,-0.235,-0.531
-2.375,8.547,-0.47,0.127,-0.266,-0.442
-2.368,8.593,-0.508,0.187,-0.369,-0.297
-2.244,8.498,-0.434,0.261,-0.571,-0.155
-2.413,8.401,-0.564,0.288,-0.805,0.033
-2.823,8.3,-0.828,0.296,-0.832,0.237
-2.831,7.909,-0.833,0.314,-0.783,0.378
-2.913,8.042,-0.811,0.297,-0.759,0.533
-3.227,8.179,-1.028,0.302,-0.749,0.648
-3.168,7.963,-0.957,0.301,-0.554,0.589
-2.749,8.288,-0.758,0.295,-0.534,0.44
-2.724,8.975,-0.807,0.33,-0.71,0.317
-2.692,9.057,-0.904,0.398,-0.906,0.152
-2.419,8.672,-0.899,0.421,-0.974,-0.026
-2.301,8.523,-1.052,0.422,-1.075,-0.097
-2.467,8.294,-1.24,0.446,-1.121,-0.023
-2.463,8.048,-1.429,0.459,-1.06,0.123
-2.439,7.801,-1.576,0.467,-1.027,0.279
-2.541,7.73,-1.649,0.472,-1.06,0.418
-2.703,7.861,-1.657,0.487,-1.104,0.525
-2.803,7.926,-1.66,0.493,-1.144,0.545
-3.038,8.348,-1.626,0.459,-1.186,0.509
-3.345,8.571,-1.636,0.451,-1.113,0.452
-3.104,8.178,-1.562,0.434,-0.987,0.28
-2.991,8.066,-1.307,0.429,-1.02,0.105
-3.11,8.493,-0.983,0.456,-1.014,0.041
-3.113,8.268,-0.714,0.527,-0.95,0.041
-2.819,8.065,-0.327,0.51,-0.902,0.053
-2.974,8.463,-0.072,0.458,-0.936,0.148
-2.992,8.615,0.003,0.385,-0.835,0.229
-2.768,8.298,-0.03,0.291,-0.806,0.229
-2.602,8.208,-0.086,0.176,-0.874,0.215
-2.743,8.247,-0.287,0.103,-0.976,0.23
-2.911,8.29,-0.536,0.076,-0.97,0.302
-3.073,8.223,-0.815,0.096,-0.981,0.391
-3.169,8.18,-0.962,0.153,-0.974,0.455
-3.362,8.504,-1.039,0.221,-0.985,0.485
-3.588,8.706,-1.149,0.286,-0.964,0.483
-3.645,8.418,-1.115,0.313,-0.858,0.38
-3.61,8.554,-0.991,0.306,-0.659,0.245
-3.485,8.743,-0.934,0.316,-0.571,0.077
-3.182,8.295,-0.854,0.302,-0.532,-0.17
-2.949,8.161,-0.699,0.207,-0.47,-0.438
-2.977,8.692,-0.766,0.088,-0.336,-0.586
-2.927,8.514,-1.02,-0.019,-0.144,-0.691
-2.59,8.13,-1.243,-0.166,0.227,-0.696
-2.453,8.137,-1.494,-0.272,0.32,-0.561
-2.481,7.867,-1.726,-0.294,0.4,-0.331
-2.318,7.35,-1.727,-0.297,0.419,-0.106
-2.308,7.838,-1.672,-0.323,0.354,0.195
-3.037,8.179,-1.885,-0.212,0.05,0.317
-3.12,7.905,-1.661,-0.162,0.206,0.314
-3.181,8.367,-1.375,-0.162,0.372,0.283
-3.263,8.959,-1.146,-0.09,0.456,0.21
-3.096,8.521,-0.794,-0.012,0.49,0.017
-2.671,8.321,-0.195,-0.103,0.617,-0.079
-2.888,8.863,-0.051,-0.141,0.672,-0.101
-2.559,8.687,0.069,-0.066,0.595,-0.187
-2.204,8.4,0.263,0.002,0.297,-0.299
-2.206,8.809,0.383,0.061,-0.126,-0.339
-2.346,8.614,0.388,0.065,-0.476,-0.341
-2.536,8.208,0.255,-0.07,-0.541,-0.311
-2.793,8.228,0.092,-0.279,-0.31,-0.229
-2.895,8.192,-0.158,-0.478,0.053,-0.092
-2.916,7.814,-0.536,-0.631,0.372,0.052
-3.086,8.138,-1.043,-0.669,0.637,0.184
-3.034,8.382,-1.36,-0.572,0.542,0.199
-3.522,8.402,-1.815,-0.431,0.296,0.084
-4.085,8.355,-2.044,-0.313,0.11,-0.088
-4.409,8.253,-1.951,-0.273,0.428,-0.22
-3.996,7.999,-1.482,-0.324,0.774,-0.315
-3.696,7.693,-1.081,-0.432,1.105,-0.342
-3.154,7.511,-0.631,-0.603,1.396,-0.248
-2.986,8.173,-0.545,-0.815,1.82,-0.067
-2.782,8.389,-0.537,-0.907,2.031,-0.011
-2.645,8.48,-0.44,-0.881,2.1,-0.041
-2.739,8.974,-0.389,-0.766,2.092,0.008
-2.799,9.32,-0.272,-0.538,1.99,0.071
-2.488,8.737,0.081,-0.275,1.674,0.043
-2.509,8.62,0.321,-0.128,1.219,0.014
-2.935,8.729,0.335,-0.071,1.003,-0.016
-2.99,8.569,0.47,-0.084,1.003,-0.139
-2.94,8.445,0.599,-0.187,1.069,-0.28
-3.075,8.569,0.61,-0.312,1.212,-0.385
-3.086,8.699,0.608,-0.417,1.447,-0.471
-2.984,8.826,0.645,-0.511,1.648,-0.56
-2.905,9.324,0.512,-0.585,1.777,-0.623
-2.758,8.772,0.377,-0.684,1.837,-0.806
-2.64,8.428,0.227,-0.831,1.99,-1.001
-2.515,8.711,0.009,-0.932,2.004,-1.103
-2.52,8.789,-0.369,-0.984,1.902,-1.074
-2.582,8.107,-0.692,-1.044,1.834,-1.019
-2.634,8.4,-0.983,-1.068,1.868,-0.834
-2.649,8.426,-1.266,-1.017,1.731,-0.595
-2.779,7.934,-1.426,-0.969,1.668,-0.362
-2.763,7.665,-1.434,-0.931,1.661,-0.194
-2.71,7.851,-1.319,-0.876,1.57,-0.068
-2.88,8.083,-1.253,-0.827,1.442,0.011
-3.064,8.214,-1.111,-0.79,1.499,0.021
-2.993,8.219,-0.855,-0.752,1.602,-0.047
-3.07,8.456,-0.664,-0.714,1.686,-0.104
-3.217,8.732,-0.472,-0.647,1.826,-0.139
-3.101,8.869,-0.187,-0.547,1.955,-0.182
-2.905,8.951,0.013,-0.454,1.898,-0.251
-2.881,8.991,0.112,-0.382,1.771,-0.335
-2.763,8.887,0.25,-0.333,1.675,-0.448
-2.662,8.965,0.275,-0.301,1.545,-0.535
-2.545,8.924,0.181,-0.279,1.346,-0.645
-2.447,8.694,0.071,-0.298,1.182,-0.783
-2.41,8.769,-0.118,-0.361,1.101,-0.926
-2.324,8.801,-0.349,-0.451,0.99,-1.042
-2.289,8.365,-0.561,-0.61,0.908,-1.12
-2.491,8.103,-0.787,-0.831,1.011,-1.052
-2.611,8.18,-0.976,-1.021,1.243,-0.87
-2.497,8.01,-1.101,-1.154,1.377,-0.654
-2.497,7.874,-1.247,-1.249,1.44,-0.442
-2.571,7.884,-1.449,-1.293,1.531,-0.297
-2.508,8.12,-1.557,-1.29,1.634,-0.226
-2.536,8.264,-1.597,-1.228,1.601,-0.166
-2.712,8.281,-1.485,-1.125,1.627,-0.055
-2.863,8.453,-1.301,-0.964,1.742,0.1
-2.78,8.718,-0.963,-0.735,1.732,0.27
-2.731,8.663,-0.597,-0.475,1.509,0.379
-2.765,8.587,-0.28,-0.288,1.295,0.4
-2.942,8.733,-0.1,-0.187,1.134,0.342
-3.148,8.733,0.105,-0.156,1.114,0.216
-3.277,8.608,0.283,-0.183,1.223,0.061
-3.384,8.637,0.424,-0.235,1.377,-0.097
-3.426,8.833,0.543,-0.275,1.556,-0.257
-3.316,8.974,0.646,-0.299,1.667,-0.45
-3.112,9.319,0.682,-0.342,1.69,-0.653
-2.873,8.998,0.673,-0.437,1.614,-0.928
-2.793,8.784,0.585,-0.603,1.643,-1.182
-2.655,8.946,0.456,-0.76,1.712,-1.335
-2.472,9.064,0.211,-0.894,1.694,-1.394
-2.353,8.617,-0.104,-1.047,1.628,-1.421
-2.471,8.668,-0.45,-1.194,1.684,-1.319
-2.428,8.407,-0.718,-1.284,1.734,-1.101
-2.457,7.814,-0.983,-1.346,1.74,-0.806
-2.591,7.418,-1.212,-1.352,1.805,-0.461
-2.638,7.379,-1.412,-1.242,1.822,-0.116
-2.559,7.642,-1.586,-1.034,1.666,0.157
-2.543,8.224,-1.78,-0.778,1.323,0.291
-2.696,8.646,-1.874,-0.512,0.917,0.236
-2.724,9.108,-1.758,-0.313,0.581,0.115
-2.963,9.155,-1.558,-0.184,0.363,-0.032
-3.084,9.147,-1.24,-0.144,0.362,-0.169
-3.122,9.228,-0.925,-0.127,0.484,-0.252
-2.83,8.943,-0.619,-0.127,0.566,-0.29
-2.713,8.32,-0.502,-0.144,0.56,-0.351
-2.605,8.25,-0.48,-0.173,0.547,-0.378
-2.954,8.106,-0.825,-0.113,0.585,-0.355
-2.887,6.919,-1.181,0.027,0.74,-0.539
-2.689,5.907,-1.687,0.153,0.856,-0.836
-2.814,6.047,-2.064,0.295,1.019,-1.008
-3.186,6.789,-2.928,0.604,1.262,-1.002
-2.153,6.411,-3.119,0.914,0.928,-1.251
-1.851,6.527,-3.184,0.938,0.489,-1.2
-2.492,7.337,-3.526,0.943,0.045,-0.749
-3.085,7.169,-4.034,0.96,-0.331,-0.235
-3.245,6.414,-4.863,0.757,-0.447,0.155
-4.213,7.244,-5.736,0.5,-0.476,0.76
-4.916,7.31,-6.096,0.354,0.044,1.246
-3.719,6.599,-5.882,0.183,0.138,1.286
-3.632,5.98,-5.634,-0.005,-0.228,1.119
-3.713,5.387,-4.639,-0.159,-0.679,0.951
-4.333,5.386,-4.384,-0.39,-0.485,1.043
-5.232,7.098,-5.262,-0.553,-0.511,1.163
-5.788,8.611,-5.427,-0.707,0.15,1.238
-5.168,9.678,-5.102,-0.835,0.834,1.277
-4.532,10.298,-4.448,-0.93,1.125,1.246
-3.527,9.841,-3.348,-0.945,1.13,0.96
-2.23,8.508,-1.693,-0.973,0.767,0.615
-2.773,7.517,-0.975,-0.995,0.423,0.473
-2.992,6.922,-0.641,-0.972,0.748,0.304
-2.475,6.511,-0.334,-0.805,1.019,-0.049
-1.77,6.141,-0.146,-0.559,0.803,-0.549
-1.553,6.447,-0.076,-0.3,0.361,-1.065
-1.528,8.189,-0.052,-0.062,-0.135,-1.488
-1.695,9.193,-0.327,0.009,-0.69,-1.805
-2.471,9.983,-0.714,-0.149,-0.507,-1.79
-3.004,10.559,-0.648,-0.316,0.189,-1.556
-2.832,10.423,-0.391,-0.424,0.854,-1.171
-2.483,8.747,-0.254,-0.499,1.317,-0.742
-2.161,7.728,0.056,-0.507,1.588,-0.245
-2.014,7.163,0.238,-0.493,1.401,0.192
-2.568,7.255,-0.122,-0.562,1.335,0.572
-3.157,7.818,-0.435,-0.591,1.692,0.716
-2.989,8.947,-0.284,-0.526,2.039,0.675
-2.553,9.72,-0.177,-0.38,1.933,0.499
-2.343,9.871,-0.171,-0.241,1.495,0.179
-2.359,9.406,-0.063,-0.154,1.074,-0.179
-2.365,8.799,0.085,-0.171,0.851,-0.376
-2.536,8.139,0.019,-0.238,0.778,-0.483
-2.68,7.876,0.062,-0.318,0.928,-0.526
-2.625,8.109,0.222,-0.34,1.19,-0.5
-2.293,8.498,0.39,-0.31,1.292,-0.441
-2.061,8.801,0.414,-0.278,1.11,-0.4
-2.099,8.876,0.35,-0.276,0.874,-0.386
-2.258,8.955,0.239,-0.292,0.753,-0.405
-2.256,8.843,0.118,-0.3,0.691,-0.457
-2.257,9.189,0.03,-0.313,0.6,-0.47
-2.384,8.97,-0.233,-0.334,0.483,-0.453
-2.629,8.545,-0.501,-0.444,0.57,-0.426
-2.863,8.581,-0.87,-0.573,0.846,-0.4
-2.879,8.745,-1.152,-0.647,1.1,-0.434
-2.75,8.345,-1.486,-0.699,1.203,-0.594
-2.85,8.707,-1.778,-0.739,1.31,-0.809
-3.019,9.317,-2.051,-0.672,1.283,-1.063
-3.142,9.142,-2.103,-0.591,1.146,-1.334
-3.663,8.927,-2.239,-0.531,0.962,-1.6
-4.246,8.523,-2.192,-0.472,0.85,-1.779
-4.872,7.78,-2.128,-0.413,0.699,-1.927
-5.554,7.013,-2.081,-0.332,0.583,-2.033
-6.143,6.253,-2.017,-0.219,0.359,-2.114
-6.898,5.326,-1.972,-0.119,0.202,-2.199
-7.435,4.393,-2.075,-0.022,0.108,-2.316
-7.925,3.437,-2.097,0.107,0.058,-2.466
-7.924,2.298,-2.053,0.207,0.035,-2.604
-8.114,1.167,-2.057,0.305,0.022,-2.7
-7.977,-0.064,-1.857,0.403,0.015,-2.652
-7.936,-1.193,-1.664,0.483,0.133,-2.57
-7.512,-2.314,-1.579,0.536,0.184,-2.437
-7.267,-3.455,-1.465,0.535,0.172,-2.299
-6.902,-4.42,-1.288,0.466,0.234,-2.151
-6.677,-5.264,-1.303,0.389,0.308,-2.055
-6.151,-6.089,-1.372,0.318,0.259,-1.934
-5.616,-6.885,-1.376,0.212,0.212,-1.817
-5.056,-7.429,-1.346,0.106,0.251,-1.681
-4.365,-7.851,-1.348,0.042,0.22,-1.544
-3.37,-8.178,-1.271,-0.043,0.209,-1.378
-2.764,-8.456,-1.256,-0.121,0.199,-1.224
-2.111,-8.633,-1.172,-0.157,0.344,-1.047
-1.587,-8.838,-1.242,-0.139,0.338,-0.868
-1.191,-9.216,-1.366,-0.129,0.439,-0.702
-0.832,-9.581,-1.547,-0.123,0.517,-0.592
-0.452,-9.736,-1.565,-0.108,0.647,-0.513
-0.004,-9.875,-1.702,-0.087,0.638,-0.448
0.374,-10.003,-1.769,-0.101,0.641,-0.386
0.617,-9.885,-1.853,-0.116,0.615,-0.316
0.873,-9.742,-1.97,-0.137,0.591,-0.236
1.041,-9.672,-2.069,-0.162,0.477,-0.149
0.747,-9.428,-2.179,-0.184,0.44,-0.079
0.661,-9.145,-2.317,-0.169,0.436,0.004
0.477,-9.053,-2.555,-0.141,0.356,0.106
0.12,-9.141,-2.87,-0.115,0.375,0.221
-0.016,-9.319,-3.15,-0.116,0.451,0.319
0.03,-9.651,-3.396,-0.146,0.465,0.374
0.008,-9.932,-3.599,-0.204,0.475,0.35
0.126,-9.946,-3.664,-0.267,0.543,0.252
0.332,-9.772,-3.582,-0.305,0.493,0.121
0.316,-9.48,-3.626,-0.325,0.461,0.007
0.242,-9.147,-3.6,-0.312,0.439,-0.078
0.173,-8.856,-3.588,-0.271,0.447,-0.107
0.184,-8.787,-3.631,-0.211,0.455,-0.093
0.287,-8.782,-3.608,-0.159,0.493,-0.057
0.568,-8.751,-3.467,-0.09,0.504,-0.011
1.066,-8.73,-3.266,-0.008,0.5,0.044
1.539,-8.879,-3.16,0.07,0.396,0.084
1.919,-9.056,-3.038,0.13,0.278,0.109
2.013,-9.253,-2.994,0.181,0.125,0.119
2.003,-9.598,-3.142,0.193,-0.025,0.11
1.711,-9.935,-3.46,0.146,-0.137,0.078
1.429,-9.994,-3.549,0.083,-0.076,0.031
1.274,-9.892,-3.527,0.024,-0.013,-0.032
1.351,-9.704,-3.403,-0.025,0.065,-0.092
1.541,-9.476,-3.114,-0.046,0.157,-0.127
1.804,-9.351,-2.736,-0.026,0.19,-0.142
1.945,-9.366,-2.516,-0.004,0.138,-0.158
2.043,-9.458,-2.375,0.019,0.112,-0.166
2.114,-9.56,-2.377,0.037,0.085,-0.176
2.059,-9.592,-2.383,0.055,0.075,-0.204
2.169,-9.512,-2.304,0.095,0.108,-0.21
2.538,-9.617,-2.255,0.176,0.025,-0.137
2.391,-9.655,-2.295,0.211,-0.074,-0.074
2.03,-9.388,-2.021,0.26,-0.031,0.017
1.77,-9.232,-1.896,0.315,-0.035,0.15
1.402,-9.299,-2.03,0.304,-0.153,0.304
0.619,-9.279,-2.08,0.226,-0.072,0.44
0.297,-9.364,-2.139,0.169,0.075,0.615
-0.004,-9.902,-2.552,0.087,0.084,0.755
-0.469,-10.441,-2.931,-0.041,0.14,0.819
-0.893,-10.656,-3.068,-0.178,0.317,0.793
-1.149,-10.621,-3.275,-0.307,0.413,0.685
-1.395,-10.472,-3.444,-0.415,0.482,0.516
-1.365,-10.092,-3.502,-0.51,0.557,0.332
-1.333,-9.576,-3.526,-0.565,0.6,0.175
-1.315,-9.115,-3.668,-0.577,0.669,0.069
-1.227,-8.799,-3.843,-0.55,0.714,0.01
-1.046,-8.537,-3.939,-0.501,0.747,0.016
-0.932,-8.38,-4.049,-0.434,0.769,0.077
-0.635,-8.149,-4.0,-0.361,0.877,0.153
-0.047,-8.029,-3.896,-0.271,0.877,0.212
0.616,-8.103,-3.731,-0.167,0.811,0.241
1.245,-8.356,-3.538,-0.043,0.647,0.224
1.762,-8.708,-3.425,0.078,0.461,0.139
2.158,-9.177,-3.484,0.17,0.182,0.021
2.12,-9.545,-3.483,0.226,-0.067,-0.073
1.833,-9.708,-3.469,0.244,-0.199,-0.13
1.515,-9.758,-3.482,0.213,-0.237,-0.173
1.207,-9.753,-3.422,0.156,-0.267,-0.199
0.921,-9.741,-3.313,0.104,-0.23,-0.23
0.884,-9.734,-3.239,0.066,-0.153,-0.287
1.357,-9.714,-3.149,0.056,-0.123,-0.328
1.845,-9.81,-3.037,0.022,-0.292,-0.361
1.938,-9.482,-2.733,-0.007,-0.416,-0.341
1.719,-9.083,-2.447,0.007,-0.535,-0.274
1.407,-8.95,-2.401,0.032,-0.648,-0.153
0.681,-8.988,-2.567,-0.0,-0.802,-0.046
-0.253,-8.93,-2.865,-0.047,-0.741,0.083
-0.843,-9.064,-3.328,-0.099,-0.577,0.185
-1.115,-9.248,-3.814,-0.173,-0.453,0.278
-1.588,-9.217,-4.238,-0.247,-0.313,0.337
-1.833,-8.938,-4.499,-0.286,-0.012,0.389
-1.773,-8.712,-4.76,-0.259,0.192,0.41
-1.515,-8.611,-4.945,-0.202,0.301,0.419
-1.205,-8.487,-4.989,-0.152,0.388,0.417
-0.859,-8.384,-4.838,-0.098,0.421,0.418
-0.829,-8.445,-4.776,-0.057,0.378,0.404
-0.909,-8.457,-4.762,-0.058,0.415,0.371
-1.132,-8.424,-4.871,-0.094,0.412,0.346
-1.482,-8.286,-5.043,-0.141,0.464,0.327
-1.564,-8.023,-5.199,-0.169,0.569,0.305
-1.419,-7.668,-5.147,-0.135,0.633,0.29
-1.018,-7.442,-4.783,-0.045,0.616,0.317
-0.533,-7.362,-4.116,0.054,0.469,0.36
-0.061,-7.32,-3.346,0.132,0.185,0.411
0.171,-7.51,-2.733,0.21,-0.21,0.444
0.071,-8.029,-2.083,0.269,-0.725,0.486
-0.939,-8.385,-1.762,0.261,-1.235,0.487
-2.121,-8.983,-1.775,0.227,-1.428,0.404
-3.093,-9.72,-1.659,0.175,-1.647,0.292
-4.519,-9.973,-1.533,0.054,-1.771,0.183
-5.544,-9.941,-1.698,-0.092,-1.558,0.04
-5.793,-9.794,-1.811,-0.201,-1.276,-0.119
-5.787,-9.338,-1.81,-0.27,-1.12,-0.226
-5.834,-8.811,-1.951,-0.279,-0.801,-0.307
-5.219,-8.66,-1.905,-0.234,-0.477,-0.351
-4.71,-8.515,-1.658,-0.18,-0.296,-0.36
-4.158,-8.488,-1.305,-0.121,-0.149,-0.321
-3.771,-8.452,-0.995,-0.061,-0.111,-0.243
-3.631,-8.431,-0.784,-0.008,-0.084,-0.145
-3.609,-8.365,-0.688,0.034,-0.002,-0.057
-3.64,-8.501,-0.624,0.076,-0.032,0.035
-3.888,-8.728,-0.748,0.093,-0.06,0.153
-4.105,-9.115,-0.998,0.026,0.007,0.209
-4.268,-9.186,-0.982,-0.073,0.095,0.239
-4.432,-9.077,-0.997,-0.163,0.102,0.231
-4.485,-8.667,-1.086,-0.256,0.139,0.189
-4.572,-8.077,-1.015,-0.305,0.114,0.143
-4.68,-7.382,-1.0,-0.284,0.064,0.184
-4.588,-7.136,-1.345,-0.251,-0.042,0.267
-4.62,-7.008,-1.576,-0.24,-0.178,0.386
-4.938,-7.033,-1.799,-0.252,-0.271,0.49
-5.24,-7.004,-1.931,-0.276,-0.286,0.544
-5.741,-7.074,-2.008,-0.281,-0.355,0.504
-6.324,-6.976,-1.965,-0.271,-0.358,0.381
-6.656,-6.831,-1.96,-0.248,-0.308,0.219
-6.694,-6.534,-1.835,-0.208,-0.309,0.096
-6.65,-6.283,-1.726,-0.189,-0.3,0.025
-6.239,-5.864,-1.429,-0.208,-0.279,0.053
-6.018,-5.46,-1.317,-0.256,-0.36,0.158
-5.875,-5.249,-1.106,-0.322,-0.473,0.335
-6.108,-5.101,-0.896,-0.404,-0.639,0.554
-6.315,-5.002,-0.621,-0.491,-0.783,0.76
-6.817,-4.961,-0.396,-0.579,-0.922,0.874
-6.978,-5.015,0.048,-0.658,-0.946,0.936
-7.549,-4.975,0.569,-0.706,-0.961,0.972
-7.856,-4.827,1.065,-0.747,-0.79,1.008
-8.365,-4.348,1.183,-0.793,-0.657,0.975
-8.359,-3.847,1.321,-0.838,-0.548,0.965
-8.741,-3.262,1.413,-0.878,-0.686,0.945
-8.895,-2.655,1.364,-0.944,-0.707,0.903
-9.051,-2.115,1.273,-0.998,-0.741,0.813
-9.103,-1.884,1.415,-1.032,-0.728,0.745
-9.479,-1.66,1.513,-1.035,-0.681,0.673
-9.682,-1.469,1.596,-1.031,-0.399,0.587
-9.616,-1.303,1.646,-1.031,-0.162,0.467
-9.515,-1.117,1.785,-1.036,0.002,0.341
-9.288,-0.907,1.95,-1.03,0.18,0.238
-9.0,-0.684,2.096,-1.007,0.332,0.15
-8.732,-0.423,2.172,-0.97,0.385,0.079
-8.512,-0.184,2.169,-0.916,0.337,0.048
-8.481,-0.029,2.046,-0.863,0.252,0.05
-8.417,0.073,1.848,-0.841,0.129,0.089
-8.509,0.193,1.627,-0.849,0.011,0.141
-8.5,0.267,1.374,-0.884,-0.055,0.2
-8.577,0.366,1.149,-0.916,-0.107,0.259
-8.545,0.509,0.939,-0.935,-0.162,0.298
-8.697,0.664,0.767,-0.915,-0.184,0.3
-8.721,0.833,0.661,-0.842,-0.156,0.284
-8.901,1.063,0.684,-0.696,-0.166,0.248
-9.056,1.256,0.785,-0.514,-0.091,0.181
-9.094,1.412,0.98,-0.31,0.005,0.096
-9.071,1.571,1.199,-0.103,0.073,0.019
-8.99,1.65,1.459,0.108,0.074,-0.033
-8.981,1.64,1.666,0.316,0.109,-0.065
-8.728,1.601,1.744,0.533,0.138,-0.071
-8.459,1.367,1.74,0.773,0.058,-0.052
-8.321,1.015,1.701,0.982,-0.019,-0.014
-8.317,0.627,1.603,1.144,-0.075,0.036
-8.237,0.231,1.484,1.245,-0.148,0.1
-8.297,-0.125,1.426,1.291,-0.316,0.15
-8.424,-0.278,1.384,1.283,-0.395,0.187
-8.45,-0.284,1.422,1.281,-0.514,0.211
-8.588,-0.177,1.501,1.266,-0.57,0.221
-8.711,0.025,1.616,1.236,-0.589,0.217
-8.92,0.238,1.774,1.188,-0.489,0.218
-9.154,0.491,1.964,1.128,-0.359,0.214
-9.464,0.842,2.126,1.08,-0.203,0.216
-9.288,1.017,2.087,1.015,0.017,0.173
-8.758,1.153,1.897,0.916,0.122,0.141
-8.796,1.449,1.731,0.815,0.198,0.14
-8.613,1.805,1.474,0.708,0.501,0.165
-8.035,2.14,0.968,0.582,0.669,0.16
-7.787,2.64,0.551,0.482,0.625,0.183
-8.064,3.307,0.179,0.456,0.723,0.208
-7.502,3.749,-0.39,0.443,0.965,0.283
-7.012,4.08,-0.984,0.442,0.914,0.375
-6.55,4.235,-1.407,0.425,0.817,0.559
-6.272,4.3,-1.772,0.411,0.701,0.777
-5.911,4.336,-2.021,0.359,0.539,1.026
-5.722,4.418,-2.141,0.283,0.317,1.248
-5.523,4.638,-2.232,0.18,0.052,1.44
-5.488,4.904,-2.288,0.063,-0.05,1.585
-5.257,5.405,-2.308,-0.069,-0.056,1.741
-4.71,5.925,-2.412,-0.192,0.018,1.889
-4.322,6.923,-2.482,-0.234,-0.141,1.988
-3.857,7.98,-2.505,-0.201,-0.244,2.044
-3.578,8.677,-2.314,-0.144,-0.515,1.894
-3.207,9.1,-2.189,-0.136,-0.555,1.577
-3.205,9.409,-2.103,-0.136,-0.665,1.124
-2.932,9.124,-1.926,-0.173,-0.605,0.608
-2.956,8.632,-1.853,-0.224,-0.386,0.083
-2.52,8.776,-1.886,-0.23,0.044,-0.274
-2.232,9.07,-1.826,-0.135,0.096,-0.518
-1.783,9.077,-1.583,-0.023,0.134,-0.676
-1.554,9.122,-1.419,0.052,0.072,-0.765
-1.28,9.109,-1.128,0.095,-0.048,-0.762
-1.322,8.929,-0.964,0.12,-0.27,-0.699
-1.339,8.579,-0.668,0.099,-0.363,-0.553
-1.579,8.518,-0.68,0.087,-0.44,-0.353
-1.735,8.477,-0.758,0.114,-0.458,-0.124
-1.922,8.52,-0.693,0.137,-0.672,0.083
-2.424,8.571,-0.651,0.168,-0.708,0.294
-2.724,9.09,-0.813,0.226,-0.661,0.536
-2.646,8.75,-0.91,0.238,-0.746,0.69
-2.992,8.735,-1.128,0.205,-0.669,0.774
-2.757,9.002,-1.409,0.247,-0.428,0.789
-2.118,8.885,-1.641,0.288,-0.435,0.706
-1.644,8.394,-1.9,0.308,-0.498,0.492
-1.13,8.751,-1.974,0.369,-0.481,0.324
-0.367,8.934,-1.914,0.446,-0.688,0.232
-0.126,8.624,-1.941,0.42,-0.926,0.232
-0.216,8.49,-1.992,0.342,-0.976,0.335
-0.447,8.447,-2.053,0.262,-0.918,0.506
-0.761,8.411,-2.185,0.174,-0.839,0.672
-0.997,8.344,-2.336,0.128,-0.753,0.765
-1.155,8.424,-2.403,0.148,-0.718,0.746
-1.111,8.568,-2.409,0.199,-0.727,0.613
-0.882,8.65,-2.321,0.242,-0.84,0.432
-0.754,8.633,-2.252,0.254,-0.903,0.276
-0.655,8.547,-2.212,0.23,-0.902,0.194
-0.673,8.469,-2.312,0.161,-0.822,0.198
-0.757,8.38,-2.467,0.066,-0.677,0.282
-0.9,8.296,-2.652,-0.023,-0.473,0.388
-1.037,8.216,-2.777,-0.083,-0.326,0.47
-1.196,8.066,-2.808,-0.14,-0.17,0.491
-1.305,7.988,-2.801,-0.192,-0.005,0.459
-1.309,8.068,-2.7,-0.228,0.077,0.366
-1.257,8.434,-2.587,-0.232,0.128,0.222
-0.984,8.337,-2.33,-0.241,0.084,0.032
-0.734,8.464,-2.063,-0.255,0.052,-0.147
-0.385,8.772,-1.724,-0.276,0.012,-0.279
-0.017,8.857,-1.501,-0.313,0.072,-0.363
0.42,8.627,-1.329,-0.366,0.101,-0.402
0.61,9.047,-1.236,-0.409,0.16,-0.387
0.845,9.338,-1.174,-0.428,0.191,-0.338
0.934,9.282,-1.156,-0.43,0.187,-0.288
0.954,9.35,-0.999,-0.4,0.16,-0.224
0.832,9.598,-0.775,-0.345,0.122,-0.16
0.749,9.689,-0.505,-0.277,0.059,-0.108
0.644,9.639,-0.32,-0.2,0.045,-0.052
0.58,9.693,-0.024,-0.128,-0.076,-0.038
0.541,9.671,0.143,-0.064,-0.149,-0.017
0.514,9.521,0.215,-0.019,-0.247,0.024
0.41,9.351,0.192,0.009,-0.288,0.085
0.431,9.354,0.259,0.038,-0.355,0.156
0.373,9.373,0.151,0.066,-0.357,0.247
0.332,9.486,0.143,0.083,-0.505,0.315
0.217,9.567,0.118,0.108,-0.516,0.35
0.345,9.756,0.022,0.134,-0.597,0.365
0.313,9.684,-0.151,0.127,-0.716,0.361
0.238,9.522,-0.357,0.105,-0.723,0.38
0.355,9.258,-0.61,0.084,-0.671,0.385
0.44,8.976,-0.815,0.045,-0.665,0.401
0.529,8.675,-0.885,-0.005,-0.546,0.429
0.545,8.656,-0.921,-0.043,-0.407,0.439
0.908,8.702,-0.795,-0.077,-0.362,0.397
0.956,8.827,-0.795,-0.12,-0.31,0.35
1.258,8.931,-0.687,-0.175,-0.306,0.302
1.348,9.013,-0.756,-0.216,-0.239,0.263
1.622,9.044,-0.726,-0.247,-0.254,0.198
1.674,9.172,-0.869,-0.255,-0.161,0.171
1.914,9.198,-0.847,-0.252,-0.171,0.127
1.94,9.237,-0.881,-0.23,-0.115,0.094
2.062,9.244,-0.801,-0.208,-0.131,0.043
2.151,9.25,-0.754,-0.185,-0.059,0.012
2.27,9.211,-0.601,-0.166,-0.087,-0.035
2.255,9.232,-0.565,-0.14,0.018,-0.061
2.273,9.282,-0.578,-0.106,0.054,-0.099
2.452,9.268,-0.542,-0.081,0.111,-0.121
2.364,9.266,-0.589,-0.048,0.104,-0.14
2.408,9.251,-0.61,-0.022,0.158,-0.13
2.356,9.218,-0.583,-0.001,0.155,-0.126
2.335,9.208,-0.522,0.005,0.129,-0.118
2.097,9.19,-0.561,0.013,0.132,-0.117
2.065,9.162,-0.514,0.006,0.168,-0.114
1.871,9.153,-0.53,0.003,0.163,-0.131
1.796,9.171,-0.549,-0.001,0.172,-0.145
1.664,9.175,-0.552,-0.006,0.227,-0.165
1.52,9.197,-0.529,0.0,0.242,-0.188
1.457,9.196,-0.531,0.007,0.269,-0.206
1.242,9.173,-0.476,0.017,0.293,-0.224
1.158,9.193,-0.399,0.036,0.322,-0.243
1.013,9.266,-0.288,0.061,0.337,-0.251
0.951,9.297,-0.147,0.075,0.354,-0.26
0.856,9.319,-0.018,0.079,0.374,-0.253
0.839,9.297,0.087,0.062,0.424,-0.231
0.759,9.245,0.15,0.031,0.496,-0.189
0.743,9.131,0.133,-0.01,0.55,-0.152
0.597,9.189,0.065,-0.044,0.669,-0.126
0.589,9.145,-0.004,-0.068,0.765,-0.145
0.603,9.122,-0.105,-0.08,0.839,-0.202
0.584,9.124,-0.159,-0.092,0.942,-0.266
0.569,9.18,-0.168,-0.107,1.132,-0.318
0.659,9.171,-0.18,-0.122,1.345,-0.356
0.788,9.307,-0.127,-0.12,1.615,-0.356
0.97,9.439,-0.079,-0.098,1.855,-0.332
1.116,9.539,-0.025,-0.052,2.106,-0.303
1.525,9.678,0.04,0.017,2.307,-0.273
1.799,9.649,0.048,0.097,2.368,-0.251
2.049,9.6,-0.031,0.181,2.322,-0.239
2.281,9.517,-0.138,0.256,2.111,-0.249
2.274,9.386,-0.378,0.307,1.774,-0.263
1.971,9.2,-0.692,0.333,1.47,-0.229
1.817,9.385,-0.919,0.321,1.21,-0.177
1.439,9.423,-1.257,0.264,0.916,-0.124
1.128,9.25,-1.528,0.173,0.842,-0.071
1.018,9.206,-1.685,0.086,0.777,-0.035
1.112,8.942,-1.895,-0.012,0.638,-0.071
1.224,8.449,-2.117,-0.088,0.472,-0.114
1.374,8.21,-2.2,-0.134,0.398,-0.142
1.448,8.244,-2.288,-0.152,0.339,-0.151
1.617,8.283,-2.327,-0.152,0.283,-0.154
1.666,8.468,-2.227,-0.12,0.188,-0.174
1.629,8.694,-2.039,-0.084,0.039,-0.254
1.697,8.931,-1.814,-0.064,-0.052,-0.401
1.881,9.213,-1.729,-0.012,-0.284,-0.563
1.414,9.492,-1.84,0.016,-0.416,-0.879
1.053,9.996,-1.932,0.048,-0.381,-1.266
0.284,10.436,-2.308,0.111,-0.22,-1.648
-1.055,10.619,-2.883,0.251,0.03,-1.987
-2.225,10.338,-3.309,0.414,0.471,-2.25
-3.517,9.663,-3.641,0.606,0.855,-2.366
-4.489,8.631,-4.054,0.829,1.344,-2.237
-5.133,7.301,-4.537,1.075,1.613,-2.046
-5.232,5.923,-4.835,1.28,1.63,-1.827
-5.509,4.585,-5.11,1.393,1.612,-1.62
-4.987,3.333,-5.282,1.435,1.518,-1.42
-4.93,2.128,-5.554,1.413,1.278,-1.359
-4.089,1.042,-5.467,1.332,1.14,-1.231
-3.168,-0.146,-5.217,1.211,1.167,-1.009
-2.304,-1.001,-5.211,1.078,0.962,-0.719
-1.912,-1.508,-5.564,0.94,0.788,-0.394
-1.564,-1.955,-5.938,0.803,0.525,-0.109
-1.799,-2.272,-6.569,0.651,0.272,0.077
-2.14,-2.31,-7.386,0.515,0.051,0.159
-2.622,-2.222,-8.045,0.409,-0.05,0.112
-2.657,-2.284,-8.39,0.336,-0.067,0.036
-2.549,-2.304,-8.583,0.262,-0.056,-0.0
-2.476,-2.279,-8.628,0.187,0.047,-0.002
-2.46,-2.225,-8.636,0.105,0.035,-0.012
-2.23,-2.229,-8.559,0.037,0.154,0.012
-2.168,-2.239,-8.42,-0.008,0.174,0.023
-2.011,-2.2,-8.293,-0.043,0.219,0.035
-2.057,-2.099,-8.23,-0.042,0.219,0.015
-1.723,-2.035,-8.199,-0.019,0.336,0.02
-1.739,-2.042,-8.317,0.007,0.238,-0.023
-1.528,-2.043,-8.509,0.02,0.244,-0.05
-1.547,-2.088,-8.734,0.03,0.204,-0.1
-1.093,-2.183,-8.779,0.031,0.233,-0.102
-1.288,-2.306,-8.807,0.023,0.127,-0.137
-1.127,-2.369,-8.681,0.014,0.161,-0.156
-1.072,-2.495,-8.499,0.0,0.14,-0.188
-0.85,-2.623,-8.313,-0.023,0.083,-0.205
-1.063,-2.759,-8.176,-0.075,0.004,-0.246
-0.994,-2.796,-8.114,-0.143,-0.086,-0.279
-1.128,-2.893,-8.096,-0.219,-0.208,-0.291
-1.246,-2.93,-8.121,-0.271,-0.313,-0.25
-1.66,-2.974,-8.067,-0.313,-0.356,-0.187
-1.781,-2.909,-8.042,-0.318,-0.441,-0.088
-2.129,-2.879,-7.987,-0.295,-0.469,0.049
-2.347,-2.883,-7.99,-0.233,-0.451,0.19
-2.819,-2.882,-8.098,-0.12,-0.415,0.273
-3.04,-2.871,-8.226,0.03,-0.357,0.286
-3.349,-2.985,-8.266,0.132,-0.242,0.215
-3.331,-3.031,-8.299,0.187,-0.084,0.083
-3.267,-2.824,-8.37,0.185,0.067,-0.068
-3.012,-2.494,-8.383,0.117,0.155,-0.21
-2.555,-2.203,-8.406,-0.005,0.314,-0.288
-2.274,-1.879,-8.624,-0.129,0.391,-0.309
-1.999,-1.646,-8.857,-0.222,0.511,-0.293
-1.468,-1.711,-8.902,-0.292,0.602,-0.232
-1.271,-1.772,-9.059,-0.362,0.717,-0.181
-1.045,-1.749,-9.158,-0.404,0.731,-0.173
-0.49,-1.529,-9.052,-0.407,0.759,-0.152
-0.346,-1.249,-8.973,-0.366,0.505,-0.171
0.074,-0.912,-8.921,-0.303,0.475,-0.158
0.188,-0.84,-8.673,-0.229,0.283,-0.155
0.487,-0.76,-8.528,-0.256,0.196,-0.095
0.139,-0.806,-8.719,-0.292,0.118,-0.079
0.461,-0.789,-8.89,-0.31,0.205,-0.03
0.02,-0.741,-9.014,-0.32,0.156,-0.051
0.358,-0.516,-9.125,-0.356,0.291,-0.046
0.391,-0.265,-9.211,-0.314,0.242,-0.049
0.626,-0.051,-9.105,-0.257,0.273,-0.023
0.586,0.025,-8.93,-0.241,0.272,-0.012
0.818,0.171,-8.929,-0.257,0.21,0.011
1.023,0.263,-8.914,-0.252,0.125,0.051
0.921,0.276,-8.973,-0.22,0.153,0.067
1.105,0.182,-8.974,-0.188,0.083,0.053
1.166,-0.011,-8.971,-0.179,0.076,0.022
1.18,-0.268,-8.924,-0.193,0.04,-0.061
1.053,-0.196,-9.058,-0.187,0.075,-0.171
1.103,-0.081,-9.047,-0.164,0.049,-0.272
1.126,0.083,-9.008,-0.178,0.075,-0.343
1.158,0.287,-9.027,-0.211,0.1,-0.401
1.131,0.609,-9.061,-0.208,0.134,-0.431
1.137,0.82,-8.945,-0.197,0.137,-0.435
1.335,0.92,-8.83,-0.202,0.132,-0.425
1.386,1.101,-8.761,-0.193,0.128,-0.4
1.61,1.394,-8.702,-0.161,0.091,-0.322
1.685,1.543,-8.658,-0.123,0.059,-0.215
1.885,1.526,-8.698,-0.091,-0.034,-0.094
1.819,1.486,-8.819,-0.064,-0.207,0.02
1.641,1.205,-8.891,-0.042,-0.186,0.064
1.371,0.964,-9.028,-0.025,-0.204,0.092
1.308,0.791,-9.108,-0.026,-0.03,0.165
1.285,0.561,-9.101,-0.045,0.104,0.196
1.295,0.43,-9.064,-0.058,0.449,0.277
1.862,0.404,-9.007,-0.075,0.577,0.381
2.326,0.388,-9.106,-0.122,0.642,0.38
2.726,0.503,-8.903,-0.181,0.55,0.281
2.962,0.61,-8.966,-0.22,0.504,0.19
3.275,0.804,-8.7,-0.205,0.375,0.043
3.126,0.979,-8.757,-0.16,0.184,-0.065
3.252,1.133,-8.462,-0.063,0.162,-0.109
3.253,1.042,-8.441,0.079,0.017,-0.074
3.428,0.932,-8.392,0.118,-0.24,-0.051
3.291,0.915,-8.75,0.085,-0.466,-0.032
3.049,0.966,-8.959,0.037,-0.443,-0.051
2.685,0.944,-9.202,-0.036,-0.493,-0.09
2.367,0.952,-9.369,-0.141,-0.43,-0.129
1.727,1.148,-9.356,-0.127,-0.284,-0.175
1.599,0.926,-9.188,-0.072,0.162,-0.032
1.895,0.896,-8.987,-0.018,0.264,0.012
2.178,0.796,-8.724,0.025,0.28,0.08
2.272,0.926,-8.664,0.038,0.231,0.088
2.688,0.671,-8.617,0.012,0.331,0.182
2.607,0.841,-8.576,-0.045,0.176,0.1
2.726,0.781,-8.511,-0.066,0.091,0.057
2.348,0.786,-8.726,-0.074,0.196,0.07
2.984,0.669,-8.691,-0.072,0.192,0.011
2.308,0.809,-8.294,-0.244,-0.487,0.183
2.275,0.934,-8.622,-0.266,-0.663,0.21
2.08,0.973,-8.838,-0.298,-0.619,0.251
2.384,1.014,-8.971,-0.269,-0.588,0.169
1.802,1.143,-9.151,-0.242,-0.458,0.17
2.437,1.079,-9.516,-0.05,0.244,-0.103
2.612,0.888,-9.281,-0.044,0.3,-0.289
2.606,0.845,-9.128,-0.053,0.256,-0.35
2.306,0.975,-8.982,-0.109,0.084,-0.324
2.347,0.921,-8.9,-0.125,0.065,-0.267
2.492,0.999,-8.925,-0.12,0.044,-0.189
2.584,1.176,-8.853,-0.078,0.082,-0.061
2.704,1.259,-8.785,-0.063,-0.071,0.003
2.644,1.237,-8.725,-0.057,-0.148,0.034
2.534,1.283,-8.714,-0.067,-0.124,0.082
2.364,1.312,-8.802,-0.077,-0.098,0.081
2.335,1.275,-8.9,-0.082,-0.125,0.076
2.101,1.346,-8.972,-0.056,0.069,0.079
2.493,1.288,-8.873,-0.037,0.244,0.129
2.498,1.222,-8.832,-0.03,0.166,0.112
2.493,1.292,-8.781,-0.024,0.133,0.11
2.493,1.222,-8.748,-0.004,0.181,0.111
2.62,1.088,-8.725,0.011,0.098,0.097
2.494,1.073,-8.738,0.025,0.086,0.068
2.652,1.057,-8.799,0.043,0.141,0.056
2.798,0.931,-8.763,0.055,0.152,0.04
2.876,0.846,-8.685,0.048,0.151,0.027
2.933,0.819,-8.733,0.036,0.199,0.012
3.003,0.706,-8.74,0.039,0.213,-0.01
3.114,0.613,-8.609,0.034,0.175,-0.037
3.096,0.564,-8.573,0.036,0.167,-0.064
3.197,0.525,-8.604,0.028,0.127,-0.114
3.243,0.477,-8.437,0.018,0.125,-0.138
3.342,0.527,-8.418,0.004,0.06,-0.17
3.33,0.573,-8.479,0.005,0.056,-0.182
3.472,0.661,-8.486,0.008,0.002,-0.19
3.424,0.754,-8.585,0.015,-0.031,-0.175
3.451,0.892,-8.807,0.029,-0.059,-0.165
3.54,0.933,-8.888,0.037,-0.051,-0.136
3.535,0.935,-8.96,0.045,-0.061,-0.097
3.519,0.887,-8.977,0.039,-0.052,-0.048
3.535,0.822,-8.969,0.033,-0.03,0.001
3.499,0.707,-8.874,0.009,-0.058,0.043
3.447,0.608,-8.847,-0.019,-0.031,0.083
3.34,0.528,-8.827,-0.05,-0.039,0.105
3.307,0.457,-8.854,-0.079,-0.01,0.118
3.235,0.393,-8.84,-0.098,-0.015,0.113
3.299,0.316,-8.825,-0.098,0.052,0.117
3.218,0.269,-8.809,-0.087,0.029,0.106
3.315,0.217,-8.765,-0.08,0.052,0.092
3.26,0.188,-8.744,-0.073,0.048,0.064
3.372,0.186,-8.708,-0.075,0.063,0.041
3.313,0.229,-8.731,-0.081,0.036,0.003
3.403,0.299,-8.733,-0.081,0.048,-0.029
3.416,0.372,-8.726,-0.075,0.054,-0.055
3.483,0.461,-8.72,-0.069,0.042,-0.071
3.419,0.543,-8.721,-0.06,0.047,-0.087
3.527,0.633,-8.663,-0.053,0.039,-0.095
3.485,0.663,-8.669,-0.051,0.046,-0.094
3.61,0.666,-8.651,-0.054,0.029,-0.088
3.555,0.649,-8.641,-0.056,0.024,-0.075
3.618,0.615,-8.605,-0.056,0.027,-0.056
3.503,0.599,-8.646,-0.061,0.008,-0.048
3.574,0.583,-8.652,-0.064,0.002,-0.048
3.471,0.603,-8.671,-0.073,-0.011,-0.056
3.548,0.625,-8.677,-0.081,-0.005,-0.06
3.481,0.681,-8.68,-0.084,-0.03,-0.067
3.563,0.717,-8.665,-0.09,-0.018,-0.061
3.49,0.796,-8.658,-0.096,-0.024,-0.054
3.515,0.842,-8.627,-0.093,-0.012,-0.039
3.423,0.853,-8.55,-0.088,-0.023,-0.022
3.455,0.792,-8.392,-0.099,-0.047,-0.004
3.279,0.605,-7.941,-0.118,-0.122,0.022
3.242,0.385,-7.195,-0.205,-0.311,0.103
2.905,0.163,-6.365,-0.398,-0.59,0.19
2.521,0.225,-5.934,-0.716,-0.83,0.292
2.002,0.551,-5.697,-1.09,-1.097,0.421
1.473,1.267,-6.026,-1.487,-1.248,0.573
0.589,2.301,-6.674,-1.842,-1.299,0.633
0.053,3.64,-7.532,-2.124,-1.098,0.692
-0.284,4.878,-7.961,-2.249,-0.894,0.679
-0.266,6.055,-8.096,-2.241,-0.729,0.645
-0.336,6.801,-7.729,-2.123,-0.685,0.556
-0.127,7.44,-7.192,-1.932,-0.656,0.528
-0.242,8.018,-6.529,-1.657,-0.701,0.481
-0.151,9.333,-5.963,-1.353,-0.77,0.533
-0.46,9.619,-5.299,-0.993,-0.888,0.415
-0.308,9.757,-4.704,-0.692,-0.708,0.194
0.105,9.637,-4.231,-0.411,-0.628,-0.066
0.489,9.442,-3.784,-0.186,-0.644,-0.245
0.697,8.498,-3.173,-0.004,-0.622,-0.433
0.944,8.543,-2.778,0.031,-0.504,-0.423
0.791,8.91,-2.573,0.056,-0.523,-0.286
0.625,9.171,-2.314,0.065,-0.406,-0.148
0.501,9.288,-2.042,0.096,-0.423,-0.089
0.131,9.25,-1.956,0.12,-0.495,-0.053
-0.132,8.977,-1.9,0.17,-0.589,-0.063
-0.41,8.706,-1.8,0.195,-0.797,-0.096
-0.982,8.582,-1.807,0.179,-0.898,-0.091
-1.221,8.453,-1.877,0.123,-0.845,-0.036
-1.322,8.399,-1.922,0.056,-0.822,0.052
-1.339,8.439,-1.964,0.011,-0.812,0.177
-1.265,8.597,-2.043,0.014,-0.927,0.359
-1.257,8.725,-2.075,0.081,-1.195,0.536
-1.386,9.152,-2.031,0.22,-1.422,0.699
-1.271,9.221,-1.875,0.356,-1.746,0.819
-1.574,9.285,-1.918,0.448,-2.037,0.89
-1.611,9.229,-1.906,0.521,-2.01,0.873
-1.309,9.07,-1.85,0.572,-1.945,0.793
-0.981,8.637,-1.878,0.562,-1.971,0.701
-0.905,8.54,-1.989,0.546,-1.881,0.624
-0.626,8.489,-2.024,0.529,-1.686,0.596
-0.475,8.385,-2.161,0.502,-1.622,0.617
-0.546,8.393,-2.3,0.472,-1.624,0.689
-0.729,8.343,-2.379,0.45,-1.619,0.754
-0.957,8.251,-2.446,0.416,-1.576,0.794
-1.072,8.218,-2.605,0.379,-1.566,0.806
-1.349,7.981,-2.59,0.325,-1.614,0.774
-1.534,7.841,-2.715,0.214,-1.447,0.741
-1.556,7.768,-2.875,0.087,-1.273,0.691
-1.568,7.755,-3.131,-0.032,-1.121,0.632
-1.573,7.663,-3.244,-0.119,-0.974,0.545
-1.362,7.886,-3.375,-0.169,-0.841,0.443
-1.189,8.15,-3.354,-0.128,-0.926,0.323
-1.168,8.213,-3.242,-0.074,-1.081,0.203
-1.143,8.298,-3.048,0.002,-1.133,0.088
-0.943,8.44,-2.711,0.069,-1.205,-0.005
-1.004,8.456,-2.475,0.109,-1.28,-0.051
-1.194,8.654,-2.265,0.089,-1.145,-0.045
-1.156,9.002,-2.106,0.076,-0.899,-0.033
-1.189,9.033,-1.924,0.055,-0.753,-0.058
-1.341,8.989,-1.765,0.038,-0.552,-0.057
-1.375,9.055,-1.512,0.028,-0.353,-0.02
-1.42,8.843,-1.277,0.028,-0.303,-0.018
-1.635,8.599,-1.063,0.008,-0.237,-0.023
-1.686,8.604,-0.903,-0.021,-0.143,-0.002
-1.755,8.609,-0.849,-0.062,-0.16,-0.012
-1.895,8.511,-0.924,-0.116,-0.168,-0.044
-1.952,8.475,-1.068,-0.176,-0.1,-0.071
-1.941,8.502,-1.272,-0.221,-0.046,-0.084
-1.967,8.479,-1.508,-0.261,-0.052,-0.084
-2.099,8.454,-1.834,-0.267,0.045,-0.06
-2.018,8.518,-2.094,-0.244,0.112,-0.027
-2.063,8.507,-2.311,-0.176,0.149,0.014
-2.045,8.699,-2.487,-0.082,0.138,0.074
-1.995,9.022,-2.594,0.029,0.129,0.144
-2.001,9.684,-2.609,0.104,0.06,0.234
-1.959,9.708,-2.652,0.156,0.097,0.287
-1.818,9.476,-2.697,0.179,0.177,0.295
-1.454,9.357,-2.554,0.249,0.344,0.31
-1.01,9.077,-2.3,0.355,0.302,0.293
-0.527,8.359,-1.959,0.462,0.253,0.189
0.015,8.362,-1.503,0.555,0.133,0.082
0.592,8.658,-1.095,0.597,-0.14,0.019
0.833,8.394,-0.946,0.521,-0.486,-0.03
0.802,8.128,-1.089,0.357,-0.549,0.001
0.873,8.044,-1.407,0.178,-0.59,0.111
0.558,7.931,-1.956,0.001,-0.638,0.251
0.166,7.782,-2.532,-0.144,-0.549,0.381
-0.185,7.844,-3.045,-0.244,-0.4,0.463
-0.296,7.962,-3.379,-0.294,-0.342,0.468
-0.541,7.987,-3.583,-0.308,-0.326,0.424
-0.535,7.943,-3.58,-0.296,-0.29,0.356
-0.456,7.971,-3.455,-0.272,-0.358,0.252
-0.428,7.947,-3.261,-0.259,-0.505,0.134
-0.631,8.509,-3.114,-0.257,-0.561,0.074
-0.678,9.123,-2.958,-0.241,-0.584,0.046
-0.82,9.123,-2.834,-0.213,-0.572,-0.045
-0.788,9.395,-2.736,-0.142,-0.488,-0.176
-0.472,9.816,-2.591,-0.009,-0.515,-0.312
-0.276,9.523,-2.334,0.114,-0.655,-0.487
0.014,9.229,-2.11,0.211,-0.696,-0.655
0.3,9.622,-1.795,0.284,-0.756,-0.678
0.467,9.581,-1.443,0.337,-0.858,-0.583
0.262,9.189,-1.176,0.321,-0.924,-0.417
0.233,8.966,-0.962,0.326,-0.845,-0.189
0.058,8.777,-0.706,0.329,-0.918,0.08
-0.169,8.611,-0.518,0.344,-1.016,0.335
-0.612,8.589,-0.345,0.315,-1.176,0.569
-1.151,8.922,-0.25,0.26,-1.137,0.797
-1.581,9.082,-0.295,0.176,-1.035,0.953
-1.737,9.162,-0.416,0.111,-0.936,0.996
-1.839,9.107,-0.55,0.074,-1.071,0.94
-1.991,9.046,-0.77,0.071,-1.15,0.851
-1.929,8.85,-0.951,0.114,-1.231,0.732
-1.845,8.774,-1.07,0.171,-1.41,0.648
-1.919,8.725,-1.169,0.211,-1.542,0.619
-1.882,8.779,-1.362,0.23,-1.509,0.634
-1.649,8.791,-1.548,0.252,-1.475,0.611
-1.31,8.918,-1.695,0.288,-1.529,0.565
-0.98,9.203,-1.768,0.342,-1.635,0.526
-0.984,9.521,-1.984,0.354,-1.684,0.507
-0.784,9.385,-2.234,0.347,-1.409,0.472
-0.396,9.261,-2.391,0.356,-1.263,0.459
-0.029,8.97,-2.558,0.378,-1.112,0.459
0.277,8.578,-2.837,0.403,-0.935,0.419
0.936,8.609,-2.986,0.479,-0.686,0.337
1.087,8.658,-3.077,0.542,-0.784,0.272
1.103,8.489,-3.233,0.563,-0.53,0.29
0.762,8.396,-3.409,0.542,-0.349,0.268
0.556,8.359,-3.552,0.491,-0.14,0.188
-0.29,8.091,-3.677,0.365,0.242,-0.004
-0.345,7.854,-3.83,0.231,0.608,-0.277
-0.417,7.667,-3.83,0.112,0.86,-0.583
-0.856,7.633,-4.092,0.024,1.338,-0.925
0.009,7.405,-4.1,-0.008,1.43,-1.17
-0.058,7.183,-4.448,0.038,1.028,-1.36
-0.119,7.299,-4.593,0.143,0.78,-1.44
-0.588,7.63,-5.0,0.259,0.347,-1.55
-0.769,7.789,-5.183,0.377,-0.296,-1.629
-2.212,7.904,-5.548,0.474,-0.523,-1.745
-2.691,7.802,-5.586,0.592,-0.576,-1.799
-3.358,7.459,-5.67,0.722,-0.537,-1.801
-4.026,6.733,-5.592,0.846,-0.536,-1.826
-4.38,5.873,-5.378,0.953,-0.41,-1.763
-5.104,4.857,-5.095,1.04,-0.31,-1.626
-5.456,3.785,-4.872,1.138,-0.113,-1.412
-5.906,2.576,-4.815,1.177,-0.016,-1.244
-5.957,1.598,-4.736,1.176,0.095,-1.04
-5.84,0.612,-4.905,1.185,0.275,-0.819
-5.737,-0.124,-5.109,1.209,0.275,-0.659
-5.484,-0.955,-5.262,1.187,0.266,-0.544
-5.427,-1.565,-5.333,1.163,0.233,-0.447
-5.288,-2.189,-5.567,1.137,0.348,-0.339
-5.207,-2.69,-5.667,1.07,0.268,-0.267
-4.902,-3.302,-5.926,0.973,0.418,-0.173
-4.67,-3.896,-6.091,0.866,0.481,-0.115
-4.366,-4.357,-6.36,0.768,0.596,-0.09
-4.091,-4.798,-6.613,0.726,0.675,-0.084
-3.535,-5.063,-7.006,0.732,0.758,-0.1
-3.333,-5.382,-6.997,0.719,0.682,-0.156
-3.206,-5.468,-6.976,0.744,0.765,-0.17
-3.415,-5.414,-6.925,0.863,0.76,-0.213
-3.728,-5.289,-6.821,1.049,0.796,-0.3
-3.966,-5.285,-6.311,1.27,0.936,-0.398
-3.623,-5.302,-5.897,1.502,1.118,-0.435
-3.037,-5.763,-5.514,1.624,1.082,-0.444
-2.331,-6.435,-5.057,1.614,1.093,-0.395
-1.614,-7.227,-4.6,1.496,0.988,-0.347
-1.215,-8.069,-4.187,1.337,0.874,-0.321
-0.848,-8.674,-3.919,1.194,0.758,-0.33
-0.625,-8.971,-3.683,1.106,0.72,-0.394
-0.169,-9.086,-3.581,1.094,0.661,-0.473
0.236,-9.033,-2.96,1.169,0.761,-0.503
0.805,-9.074,-2.112,1.203,0.727,-0.474
0.919,-9.534,-1.278,1.119,0.625,-0.359
0.812,-9.975,-0.838,1.017,0.61,-0.218
0.488,-10.292,-0.326,0.912,0.768,-0.123
0.645,-10.749,0.168,0.784,0.923,-0.02
0.439,-10.907,0.45,0.502,1.083,0.042
0.495,-10.422,0.411,0.222,1.38,0.101
0.379,-10.016,0.737,-0.003,1.419,0.07
0.641,-9.927,1.067,-0.266,1.399,0.134
0.522,-9.911,1.055,-0.485,1.13,0.192
0.407,-9.763,0.521,-0.464,1.072,0.295
0.1,-10.006,0.772,-0.343,0.88,0.306
0.716,-9.989,0.494,-0.201,1.051,0.458
0.265,-9.985,0.386,-0.043,0.969,0.555
0.166,-9.814,0.081,-0.038,0.994,0.633
0.135,-9.994,0.3,-0.207,0.897,0.691
0.337,-9.71,-0.454,-0.444,0.994,0.801
-0.377,-9.49,-0.377,-0.789,0.769,0.851
-0.145,-9.033,-0.792,-1.262,0.82,0.957
-0.533,-8.306,-1.108,-1.771,0.733,1.126
-0.79,-7.309,-2.034,-2.251,0.808,1.38
-1.612,-6.125,-2.747,-2.692,0.563,1.62
-1.874,-4.601,-4.299,-3.047,0.572,1.901
-2.679,-3.123,-5.478,-3.216,0.271,2.152
-3.365,-1.534,-7.011,-3.15,0.274,2.35
-4.527,-0.007,-8.094,-2.918,0.008,2.383
-4.862,1.19,-8.493,-2.578,-0.081,2.313
-5.109,2.202,-8.404,-2.207,-0.175,2.157
-5.065,3.242,-8.061,-1.868,-0.066,1.959
-4.874,4.221,-7.462,-1.619,-0.091,1.739
-4.153,5.219,-6.659,-1.44,-0.021,1.607
-3.656,6.252,-6.28,-1.282,-0.008,1.512
-3.165,6.915,-5.737,-1.163,-0.03,1.434
-2.636,7.372,-5.322,-1.058,-0.114,1.351
-1.977,7.553,-4.836,-1.019,-0.122,1.323
-1.374,7.582,-4.396,-1.081,-0.047,1.351
-0.709,7.697,-3.875,-1.296,0.185,1.504
0.017,8.847,-3.482,-1.381,0.21,1.633
-0.05,9.413,-3.476,-1.348,0.238,1.516
0.628,9.622,-3.045,-1.162,0.285,1.252
1.12,9.901,-2.905,-0.875,0.22,0.909
1.378,9.913,-2.855,-0.442,0.069,0.451
1.531,9.054,-2.769,-0.139,0.043,0.052
2.436,8.815,-2.347,0.042,-0.035,-0.075
2.527,9.101,-2.315,0.099,-0.135,-0.079
2.606,9.296,-2.226,0.126,-0.262,-0.073
2.84,9.527,-2.001,0.109,-0.32,-0.041
2.806,9.234,-1.88,0.069,-0.241,-0.0
2.921,9.1,-1.771,0.037,-0.142,0.059
2.896,9.019,-1.641,0.027,-0.142,0.099
2.956,8.799,-1.463,0.03,-0.036,0.119
2.909,8.467,-1.439,0.053,0.007,0.122
3.118,8.568,-1.245,0.106,-0.057,0.103
3.094,8.611,-1.195,0.132,-0.053,0.073
3.246,8.554,-1.163,0.127,-0.048,0.032
3.332,8.597,-1.306,0.097,-0.055,0.021
3.395,8.525,-1.477,0.053,-0.048,0.02
3.268,8.535,-1.793,-0.004,-0.016,0.042
3.2,8.516,-2.084,-0.064,0.001,0.048
2.933,8.303,-2.475,-0.109,0.116,0.067
2.807,8.181,-2.702,-0.121,0.215,0.056
2.754,8.198,-2.875,-0.102,0.276,0.017
2.653,8.206,-3.012,-0.052,0.308,-0.071
2.653,8.17,-3.135,0.012,0.335,-0.16
2.813,8.158,-3.149,0.092,0.262,-0.246
2.878,8.074,-3.137,0.2,0.285,-0.354
3.143,8.585,-3.151,0.293,0.204,-0.398
3.024,8.965,-3.282,0.389,0.012,-0.447
3.036,8.76,-3.341,0.491,-0.032,-0.479
2.969,8.855,-3.436,0.623,-0.225,-0.517
2.757,9.089,-3.611,0.717,-0.414,-0.535
2.394,8.904,-3.8,0.792,-0.488,-0.569
2.314,8.608,-3.983,0.836,-0.378,-0.573
1.983,8.856,-4.237,0.91,-0.485,-0.637
1.556,8.681,-4.603,0.985,-0.319,-0.697
1.106,8.412,-5.003,1.062,-0.29,-0.71
0.621,7.912,-5.451,1.141,-0.235,-0.679
0.047,7.402,-5.8,1.215,-0.279,-0.652
-0.507,6.822,-6.252,1.254,-0.194,-0.583
-0.897,6.138,-6.609,1.234,-0.179,-0.492
-1.111,5.289,-6.932,1.188,-0.142,-0.395
-1.415,4.442,-7.239,1.121,-0.071,-0.321
-1.399,3.736,-7.534,1.03,0.035,-0.217
-1.419,3.177,-7.761,0.918,0.11,-0.069
-1.366,2.845,-7.969,0.811,0.161,0.075
-1.352,2.539,-8.138,0.737,0.213,0.199
-1.084,2.312,-8.227,0.67,0.22,0.317
-0.918,2.049,-8.266,0.603,0.187,0.441
-0.74,1.776,-8.258,0.495,0.189,0.528
-0.521,1.66,-8.249,0.362,0.22,0.638
-0.272,1.685,-8.249,0.226,0.198,0.697
-0.132,1.788,-8.215,0.104,0.257,0.711
-0.042,2.107,-8.116,-0.01,0.374,0.689
0.387,2.529,-8.067,-0.084,0.369,0.64
0.649,2.79,-8.163,-0.1,0.399,0.479
1.093,2.974,-8.23,-0.087,0.438,0.303
1.471,3.11,-8.384,-0.054,0.431,0.139
1.917,2.979,-8.585,0.006,0.27,-0.016
1.97,2.642,-8.734,0.062,0.236,-0.092
2.041,2.372,-8.7,0.082,0.166,-0.062
1.953,2.23,-8.638,0.093,0.037,0.007
1.745,2.047,-8.543,0.107,-0.092,0.054
1.591,2.037,-8.482,0.128,-0.099,0.088
1.59,2.14,-8.377,0.158,-0.155,0.091
1.471,2.086,-8.336,0.195,-0.215,0.075
1.328,1.913,-8.325,0.213,-0.2,0.098
1.145,1.705,-8.332,0.205,-0.185,0.166
0.857,1.361,-8.42,0.177,-0.203,0.255
0.543,0.971,-8.537,0.149,-0.212,0.354
0.309,0.624,-8.714,0.114,-0.231,0.463
0.131,0.258,-8.912,0.061,-0.198,0.54
0.309,-0.045,-9.096,0.027,-0.148,0.588
0.463,-0.252,-9.198,0.027,-0.103,0.623
0.722,-0.454,-9.247,0.039,-0.083,0.638
0.847,-0.581,-9.195,0.054,-0.086,0.616
0.926,-0.67,-9.113,0.073,-0.088,0.571
0.857,-0.696,-9.004,0.089,-0.139,0.501
0.812,-0.742,-8.971,0.106,-0.2,0.407
0.713,-0.772,-8.998,0.122,-0.243,0.301
0.74,-0.766,-9.086,0.144,-0.236,0.194
0.89,-0.714,-9.184,0.188,-0.258,0.107
0.92,-0.757,-9.241,0.232,-0.251,0.051
0.931,-0.845,-9.22,0.245,-0.22,0.026
0.839,-0.976,-9.192,0.236,-0.181,0.018
0.701,-1.072,-9.139,0.217,-0.118,0.025
0.552,-1.183,-9.095,0.181,-0.08,0.023
0.391,-1.157,-9.143,0.141,-0.049,0.019
0.342,-0.982,-9.139,0.103,0.014,0.045
0.233,-0.855,-9.176,0.033,0.004,0.059
0.229,-0.811,-9.139,-0.043,-0.004,0.096
-0.004,-0.687,-9.035,-0.075,0.013,0.173
-0.082,-0.779,-8.808,-0.058,-0.021,0.284
-0.39,-0.905,-8.696,-0.036,-0.089,0.373
-0.554,-0.849,-8.603,0.038,-0.043,0.489
-0.864,-0.774,-8.603,0.141,-0.102,0.603
-0.996,-0.824,-8.754,0.201,-0.156,0.691
-1.122,-0.706,-8.922,0.212,-0.17,0.736
-1.01,-0.714,-9.039,0.239,-0.164,0.765
-0.913,-0.861,-8.979,0.257,-0.205,0.777
-0.809,-1.048,-8.916,0.252,-0.199,0.762
-0.703,-1.189,-8.71,0.259,-0.191,0.725
-0.726,-1.304,-8.561,0.255,-0.206,0.661
-0.858,-1.444,-8.451,0.227,-0.174,0.579
-0.914,-1.387,-8.482,0.205,-0.158,0.499
-1.003,-1.459,-8.542,0.196,-0.193,0.419
-1.137,-1.498,-8.629,0.18,-0.213,0.355
-1.353,-1.62,-8.761,0.19,-0.271,0.339
-1.535,-1.742,-8.699,0.216,-0.426,0.337
-1.993,-1.998,-8.568,0.247,-0.581,0.326
-2.365,-2.062,-8.26,0.268,-0.713,0.31
-2.849,-2.213,-7.951,0.263,-0.863,0.279
-3.343,-2.45,-7.48,0.208,-1.004,0.198
-4.014,-2.635,-7.137,0.12,-0.988,0.157
-4.606,-2.795,-6.815,0.009,-1.09,0.118
-5.178,-2.899,-6.604,-0.112,-1.084,0.079
-5.579,-2.94,-6.33,-0.222,-1.103,0.035
-5.895,-2.859,-6.1,-0.295,-0.954,0.039
-5.975,-2.674,-5.809,-0.331,-0.969,0.016
-6.174,-2.498,-5.576,-0.326,-0.807,0.005
-6.196,-2.376,-5.284,-0.302,-0.751,0.021
-6.663,-2.202,-5.128,-0.259,-0.632,0.06
-6.808,-2.038,-5.004,-0.223,-0.511,0.088
-7.104,-1.951,-4.949,-0.2,-0.445,0.137
-7.439,-1.651,-4.834,-0.188,-0.394,0.23
-7.487,-1.392,-4.694,-0.198,-0.277,0.282
-7.307,-1.093,-4.397,-0.226,-0.253,0.352
-7.363,-0.611,-4.028,-0.229,-0.302,0.426
-7.356,-0.102,-3.606,-0.202,-0.313,0.451
-6.991,0.175,-3.242,-0.196,-0.396,0.433
-7.633,0.65,-3.002,-0.17,-0.55,0.43
-7.664,0.95,-2.923,-0.142,-0.506,0.421
-7.91,0.988,-2.938,-0.155,-0.635,0.384
-8.009,1.006,-3.012,-0.206,-0.492,0.394
-8.19,1.062,-3.02,-0.261,-0.396,0.391
-7.894,0.956,-3.009,-0.321,-0.119,0.402
-7.789,1.041,-2.919,-0.382,-0.156,0.389
-7.847,1.173,-2.877,-0.417,0.051,0.392
-7.695,1.373,-2.789,-0.439,0.035,0.359
-7.769,1.603,-2.781,-0.458,0.075,0.321
-7.759,1.908,-2.78,-0.476,0.019,0.28
-7.998,2.247,-2.792,-0.487,0.148,0.274
-7.701,2.516,-2.708,-0.513,0.15,0.246
-7.796,2.815,-2.617,-0.548,0.212,0.233
-7.548,3.184,-2.464,-0.577,0.297,0.263
-7.498,3.6,-2.298,-0.614,0.283,0.288
-7.231,3.863,-2.12,-0.655,0.32,0.266
-7.151,4.073,-1.966,-0.708,0.305,0.257
-7.17,4.384,-1.859,-0.76,0.357,0.263
-7.145,4.641,-1.748,-0.781,0.389,0.242
-6.9,4.691,-1.671,-0.761,0.43,0.221
-6.82,4.675,-1.624,-0.721,0.385,0.224
-6.742,4.814,-1.658,-0.66,0.43,0.256
-6.508,4.87,-1.715,-0.596,0.374,0.272
-6.482,4.941,-1.851,-0.548,0.367,0.282
-6.396,5.123,-1.971,-0.52,0.383,0.279
-6.373,5.414,-2.122,-0.476,0.415,0.263
-6.267,5.674,-2.247,-0.404,0.38,0.227
-6.243,5.997,-2.39,-0.318,0.333,0.225
-5.975,6.317,-2.481,-0.241,0.273,0.266
-5.658,6.319,-2.538,-0.193,0.184,0.284
-5.358,6.391,-2.513,-0.179,0.228,0.32
-5.0,6.709,-2.406,-0.158,0.301,0.378
-4.485,6.737,-2.28,-0.12,0.29,0.366
-4.257,6.677,-2.214,-0.092,0.279,0.285
-4.115,7.009,-2.257,-0.065,0.342,0.238
-3.944,7.284,-2.402,-0.047,0.279,0.196
-3.863,7.19,-2.643,-0.081,0.226,0.129
-3.812,7.189,-2.919,-0.139,0.276,0.099
-3.686,7.183,-3.133,-0.185,0.307,0.106
-3.651,7.047,-3.286,-0.219,0.289,0.113
-3.669,6.837,-3.379,-0.248,0.298,0.096
-3.711,6.719,-3.449,-0.275,0.322,0.066
-3.772,6.769,-3.499,-0.31,0.372,0.022
-3.765,6.952,-3.564,-0.331,0.417,-0.027
-3.745,7.257,-3.55,-0.333,0.478,-0.057
-3.522,7.202,-3.376,-0.326,0.51,-0.13
-3.417,7.384,-3.147,-0.303,0.579,-0.154
-3.215,7.573,-2.803,-0.265,0.584,-0.129
-3.162,7.6,-2.485,-0.268,0.591,-0.109
-3.087,7.477,-2.194,-0.307,0.651,-0.124
-3.159,7.751,-2.068,-0.353,0.744,-0.085
-3.148,7.958,-2.091,-0.378,0.786,-0.058
-3.132,8.082,-2.256,-0.359,0.807,-0.061
-2.932,8.031,-2.387,-0.297,0.738,-0.073
-2.89,7.908,-2.559,-0.221,0.617,-0.074
-2.819,7.868,-2.724,-0.147,0.562,-0.059
-2.688,7.724,-2.821,-0.097,0.474,-0.058
-2.655,7.546,-2.915,-0.092,0.4,-0.068
-2.743,7.563,-3.062,-0.098,0.415,-0.076
-2.655,7.624,-3.174,-0.096,0.419,-0.085
-2.677,7.655,-3.33,-0.093,0.363,-0.092
-2.629,7.836,-3.434,-0.095,0.336,-0.071
-2.597,8.019,-3.514,-0.125,0.305,-0.025
-2.526,7.997,-3.487,-0.192,0.284,0.006
-2.445,8.155,-3.406,-0.247,0.368,0.055
-2.074,8.326,-3.169,-0.251,0.366,0.078
-1.88,8.091,-2.942,-0.228,0.286,0.031
-1.668,7.894,-2.687,-0.194,0.309,-0.066
-1.449,8.05,-2.476,-0.16,0.349,-0.147
-1.325,8.089,-2.372,-0.154,0.336,-0.218
-1.32,7.999,-2.4,-0.196,0.404,-0.281
-1.187,8.157,-2.46,-0.252,0.518,-0.312
-1.109,8.214,-2.536,-0.295,0.512,-0.311
-1.113,8.138,-2.623,-0.336,0.525,-0.284
-1.059,8.056,-2.677,-0.381,0.532,-0.246
-1.088,8.067,-2.702,-0.418,0.531,-0.212
-1.126,8.178,-2.678,-0.452,0.543,-0.175
-1.099,8.209,-2.631,-0.491,0.561,-0.153
-1.089,8.117,-2.565,-0.548,0.571,-0.159
-1.098,8.258,-2.489,-0.601,0.589,-0.154
-1.11,8.352,-2.366,-0.615,0.599,-0.141
-1.056,8.47,-2.154,-0.591,0.579,-0.142
-1.045,8.637,-1.893,-0.546,0.499,-0.154
-1.06,8.949,-1.627,-0.48,0.399,-0.153
-1.052,9.037,-1.31,-0.393,0.312,-0.183
-1.001,9.138,-0.992,-0.342,0.227,-0.211
-1.091,9.065,-0.78,-0.343,0.172,-0.208
-1.186,9.015,-0.613,-0.36,0.233,-0.169
-1.191,8.952,-0.438,-0.347,0.306,-0.123
-1.184,8.921,-0.298,-0.315,0.322,-0.061
-1.246,8.949,-0.207,-0.26,0.275,0.002
-1.326,8.98,-0.137,-0.193,0.219,0.047
-1.394,9.06,-0.1,-0.128,0.15,0.065
-1.471,9.106,-0.1,-0.079,0.092,0.064
-1.514,9.034,-0.125,-0.053,0.065,0.052
-1.564,9.041,-0.208,-0.049,0.083,0.03
-1.593,9.056,-0.271,-0.049,0.154,-0.01
-1.592,9.069,-0.306,-0.042,0.249,-0.074
-1.546,9.099,-0.333,-0.026,0.332,-0.156
-1.54,9.222,-0.317,-0.005,0.386,-0.249
-1.493,9.216,-0.259,0.004,0.421,-0.313
-1.62,9.201,-0.268,-0.016,0.51,-0.361
-1.619,9.16,-0.298,-0.057,0.621,-0.395
-1.606,9.006,-0.345,-0.116,0.701,-0.422
-1.697,8.845,-0.443,-0.181,0.79,-0.425
-1.82,8.667,-0.556,-0.247,0.917,-0.429
-1.793,8.512,-0.723,-0.314,0.99,-0.406
-1.897,8.395,-0.937,-0.373,1.022,-0.351
-2.027,8.537,-1.209,-0.417,1.063,-0.271
-2.058,8.666,-1.514,-0.44,1.089,-0.221
-2.074,8.674,-1.785,-0.446,1.098,-0.22
-2.067,8.684,-1.925,-0.425,1.076,-0.241
-2.058,8.629,-1.971,-0.393,1.055,-0.261
-2.053,8.401,-1.904,-0.366,1.033,-0.269
-2.049,8.203,-1.785,-0.357,1.007,-0.251
-2.045,8.171,-1.67,-0.345,0.96,-0.203
-1.998,8.187,-1.559,-0.325,0.881,-0.154
-1.919,8.267,-1.485,-0.3,0.759,-0.124
-1.842,8.319,-1.419,-0.265,0.587,-0.122
-1.735,8.352,-1.357,-0.225,0.411,-0.134
-1.634,8.48,-1.278,-0.189,0.215,-0.139
-1.557,8.583,-1.27,-0.143,0.004,-0.115
-1.508,8.618,-1.179,-0.086,-0.168,-0.086
-1.393,8.843,-1.141,-0.033,-0.335,-0.058
-1.43,8.977,-1.102,0.001,-0.512,-0.038
-1.491,8.859,-1.091,0.024,-0.574,-0.045
-1.464,8.798,-1.0,0.019,-0.532,-0.073
-1.463,8.904,-1.002,-0.001,-0.525,-0.073
-1.572,8.883,-0.926,-0.014,-0.454,-0.035
-1.495,8.878,-0.835,-0.005,-0.365,0.025
-1.443,8.902,-0.726,0.013,-0.412,0.097
-1.544,8.94,-0.651,0.041,-0.5,0.181
-1.586,8.876,-0.541,0.08,-0.554,0.264
-1.617,8.774,-0.484,0.121,-0.665,0.329
-1.741,8.777,-0.439,0.162,-0.762,0.396
-1.831,8.904,-0.41,0.223,-0.822,0.474
-1.844,8.944,-0.376,0.3,-0.889,0.519
-1.809,9.141,-0.32,0.374,-0.984,0.52
-1.732,8.945,-0.271,0.407,-1.104,0.487
-1.705,8.72,-0.339,0.379,-1.146,0.432
-1.536,8.665,-0.498,0.309,-1.049,0.329
-1.139,8.59,-0.599,0.237,-0.973,0.178
-0.86,8.43,-0.795,0.132,-0.956,0.027
-0.778,8.78,-1.008,0.03,-0.885,-0.06
-0.65,9.01,-1.16,-0.041,-0.789,-0.072
-0.571,8.921,-1.243,-0.103,-0.806,-0.0
-0.746,8.972,-1.367,-0.163,-0.856,0.165
-0.888,9.0,-1.355,-0.156,-0.868,0.37
-0.849,8.879,-1.27,-0.09,-0.94,0.543
-0.86,8.85,-1.111,0.014,-1.14,0.64
-0.868,8.859,-0.856,0.153,-1.32,0.654
-0.815,8.879,-0.616,0.298,-1.493,0.594
-0.77,9.175,-0.423,0.411,-1.576,0.513
-0.596,9.253,-0.404,0.435,-1.545,0.39
-0.413,9.487,-0.589,0.356,-1.336,0.236
-0.098,9.711,-0.732,0.216,-1.066,0.146
0.178,9.756,-0.916,0.05,-0.763,0.147
0.492,9.394,-1.086,-0.113,-0.551,0.168
0.626,9.247,-1.134,-0.206,-0.399,0.224
0.817,9.049,-0.993,-0.192,-0.393,0.322
0.807,8.989,-0.962,-0.118,-0.49,0.395
0.769,8.976,-0.886,-0.021,-0.565,0.401
0.743,9.075,-0.842,0.048,-0.609,0.383
0.643,9.114,-0.908,0.061,-0.583,0.362
0.704,9.087,-0.995,0.028,-0.457,0.323
0.805,9.013,-1.099,-0.021,-0.342,0.261
0.95,8.906,-1.203,-0.074,-0.257,0.193
1.009,8.813,-1.337,-0.113,-0.148,0.122
1.22,8.85,-1.345,-0.116,-0.061,0.03
1.353,8.916,-1.289,-0.091,-0.085,-0.061
1.371,9.037,-1.255,-0.08,-0.11,-0.119
1.327,9.138,-1.237,-0.1,-0.077,-0.151
1.35,9.179,-1.193,-0.126,-0.026,-0.167
1.352,9.25,-1.145,-0.125,-0.012,-0.161
1.295,9.162,-1.126,-0.116,-0.016,-0.153
1.261,8.973,-1.048,-0.112,0.039,-0.135
1.238,8.882,-0.924,-0.094,0.081,-0.096
1.262,9.008,-0.795,-0.065,0.131,-0.051
1.317,9.148,-0.704,-0.044,0.127,-0.018
1.303,9.21,-0.663,-0.047,0.161,0.017
1.366,9.341,-0.65,-0.049,0.194,0.053
1.423,9.461,-0.682,-0.037,0.205,0.08
1.461,9.388,-0.723,-0.018,0.152,0.089
1.433,9.192,-0.735,-0.011,0.156,0.103
1.472,9.188,-0.709,0.003,0.151,0.122
1.544,9.152,-0.649,0.028,0.114,0.113
1.595,9.147,-0.581,0.046,0.064,0.082
1.578,9.107,-0.507,0.043,0.042,0.04
1.598,9.131,-0.462,0.035,0.023,-0.013
1.664,9.176,-0.417,0.032,-0.012,-0.08
1.667,9.257,-0.434,0.033,-0.079,-0.143
1.701,9.301,-0.475,0.033,-0.148,-0.196
1.782,9.353,-0.55,0.041,-0.223,-0.225
1.786,9.398,-0.657,0.057,-0.318,-0.231
1.712,9.372,-0.817,0.072,-0.38,-0.208
1.558,9.32,-1.05,0.076,-0.404,-0.171
1.356,9.234,-1.334,0.072,-0.377,-0.129
1.116,9.086,-1.681,0.061,-0.282,-0.106
0.995,8.889,-1.966,0.045,-0.167,-0.11
0.843,8.739,-2.226,0.025,-0.079,-0.125
0.682,8.598,-2.357,0.004,0.04,-0.168
0.604,8.554,-2.367,-0.017,0.155,-0.25
0.503,8.542,-2.269,-0.042,0.199,-0.363
0.284,8.574,-2.144,-0.083,0.257,-0.491
0.044,8.591,-1.937,-0.131,0.363,-0.63
-0.088,8.759,-1.717,-0.164,0.452,-0.754
-0.281,8.721,-1.471,-0.173,0.476,-0.854
-0.649,8.831,-1.283,-0.171,0.522,-0.865
-1.019,8.902,-1.061,-0.158,0.613,-0.78
-1.307,9.103,-0.931,-0.142,0.669,-0.636
-1.66,9.119,-0.856,-0.142,0.699,-0.459
-1.923,9.153,-0.865,-0.16,0.754,-0.264
-1.977,8.977,-0.859,-0.178,0.781,-0.128
-1.905,8.835,-0.921,-0.175,0.732,-0.085
-1.841,8.592,-0.97,-0.148,0.643,-0.124
-1.77,8.495,-1.018,-0.101,0.544,-0.215
-1.765,8.555,-1.07,-0.054,0.448,-0.336
-1.846,8.678,-1.127,-0.032,0.395,-0.497
-2.042,8.737,-1.237,-0.053,0.414,-0.662
-2.305,8.834,-1.347,-0.094,0.544,-0.787
-2.48,8.954,-1.549,-0.132,0.706,-0.868
-2.669,8.754,-1.756,-0.157,0.782,-0.944
-2.929,8.521,-2.063,-0.149,0.823,-1.002
-3.3,8.421,-2.34,-0.101,0.848,-1.045
-3.589,8.267,-2.724,-0.026,0.8,-1.127
-4.021,7.917,-3.063,0.048,0.658,-1.259
-4.437,7.594,-3.365,0.128,0.574,-1.387
-4.806,7.238,-3.571,0.21,0.468,-1.473
-4.998,6.637,-3.814,0.288,0.333,-1.524
-5.261,5.88,-3.935,0.353,0.168,-1.543
-5.524,5.086,-3.992,0.399,0.094,-1.524
-5.733,4.433,-4.06,0.421,0.085,-1.481
-5.894,3.809,-4.07,0.435,0.09,-1.436
-6.059,3.253,-4.064,0.446,0.084,-1.389
-6.266,2.825,-4.048,0.467,0.098,-1.329
-6.315,2.384,-3.995,0.484,0.083,-1.27
-6.436,1.851,-3.998,0.484,0.046,-1.195
-6.573,1.198,-4.076,0.476,0.016,-1.125
-6.775,0.546,-4.042,0.437,-0.052,-1.059
-6.921,-0.185,-4.03,0.371,-0.077,-0.994
-7.238,-0.946,-4.082,0.307,-0.105,-0.953
-7.307,-1.631,-3.981,0.252,-0.098,-0.948
-7.327,-2.284,-3.917,0.201,-0.065,-0.955
-7.215,-2.888,-3.819,0.189,-0.008,-0.963
-7.108,-3.436,-3.73,0.191,-0.008,-0.974
-6.731,-3.921,-3.618,0.209,0.012,-0.953
-6.602,-4.418,-3.598,0.221,-0.02,-0.934
-6.381,-4.771,-3.437,0.24,-0.027,-0.903
-6.187,-5.084,-3.354,0.25,-0.033,-0.874
-5.992,-5.401,-3.239,0.259,0.008,-0.844
-5.808,-5.708,-3.176,0.252,0.051,-0.799
-5.755,-5.969,-3.113,0.252,0.097,-0.752
-5.592,-6.246,-3.071,0.243,0.139,-0.704
-5.48,-6.512,-3.035,0.228,0.186,-0.663
-5.248,-6.753,-2.988,0.207,0.186,-0.622
-5.146,-6.949,-2.87,0.18,0.17,-0.589
-4.824,-7.126,-2.789,0.151,0.129,-0.526
-4.625,-7.283,-2.77,0.104,0.065,-0.461
-4.445,-7.437,-2.73,0.044,-0.031,-0.401
-4.276,-7.532,-2.818,-0.011,-0.111,-0.342
-4.215,-7.613,-2.951,-0.056,-0.172,-0.295
-4.157,-7.611,-3.149,-0.088,-0.204,-0.271
-4.201,-7.619,-3.454,-0.084,-0.218,-0.254
-4.084,-7.697,-3.711,-0.061,-0.182,-0.244
-4.073,-7.806,-3.881,-0.04,-0.162,-0.265
-3.821,-7.893,-3.935,-0.024,-0.115,-0.286
-3.641,-7.965,-3.917,-0.01,-0.068,-0.306
-3.262,-7.979,-3.645,0.006,-0.068,-0.312
-3.029,-7.93,-3.519,0.023,-0.104,-0.301
-2.658,-7.994,-3.327,0.035,-0.165,-0.243
-2.713,-8.075,-3.324,0.047,-0.226,-0.17
-2.651,-8.26,-3.139,0.059,-0.307,-0.115
-2.937,-8.431,-3.079,0.038,-0.352,-0.085
-3.061,-8.529,-2.971,-0.001,-0.339,-0.053
-3.323,-8.481,-2.864,-0.026,-0.315,-0.047
-3.409,-8.412,-2.695,-0.027,-0.302,-0.068
-3.436,-8.275,-2.627,-0.011,-0.323,-0.068
-3.391,-8.148,-2.589,0.035,-0.349,-0.007
-3.496,-8.012,-2.336,0.078,-0.367,0.097
-3.636,-7.963,-2.021,0.11,-0.42,0.272
-3.886,-7.81,-1.749,0.112,-0.402,0.494
-4.343,-7.783,-1.373,0.093,-0.344,0.738
-4.952,-7.785,-0.893,0.053,-0.303,0.952
-5.559,-7.645,-0.721,0.055,-0.233,1.117
-5.918,-7.392,-0.668,0.038,-0.147,1.197
-6.369,-7.173,-0.555,0.028,-0.122,1.213
-6.691,-6.779,-0.506,0.006,-0.02,1.193
-6.983,-6.323,-0.612,-0.023,0.026,1.1
-7.203,-6.043,-0.621,-0.069,0.178,0.991
-7.644,-5.679,-0.638,-0.092,0.302,0.843
-7.909,-5.393,-0.769,-0.091,0.466,0.722
-7.984,-5.05,-1.058,-0.061,0.504,0.627
-7.78,-4.624,-1.455,-0.057,0.499,0.561
-7.907,-4.147,-1.86,-0.074,0.591,0.506
-7.854,-3.624,-2.249,-0.097,0.708,0.488
-7.661,-3.068,-2.653,-0.132,0.705,0.46
-7.653,-2.498,-2.982,-0.17,0.686,0.403
-7.726,-2.089,-3.267,-0.158,0.769,0.356
-7.468,-1.787,-3.559,-0.124,0.593,0.335
-7.345,-1.707,-3.941,-0.117,0.385,0.338
-7.327,-1.694,-4.249,-0.132,0.367,0.336
-7.164,-1.737,-4.606,-0.159,0.445,0.333
-6.949,-1.782,-4.788,-0.204,0.443,0.336
-6.755,-1.778,-5.034,-0.263,0.379,0.327
-6.611,-1.751,-5.145,-0.303,0.429,0.317
-6.366,-1.649,-5.227,-0.333,0.34,0.311
-6.345,-1.58,-5.298,-0.376,0.206,0.301
-6.337,-1.478,-5.435,-0.421,0.18,0.276
-6.432,-1.308,-5.505,-0.478,0.203,0.226
-6.399,-1.047,-5.586,-0.54,0.196,0.161
-6.455,-0.668,-5.616,-0.597,0.189,0.086
-6.405,-0.385,-5.531,-0.638,0.213,0.035
-6.368,0.037,-5.42,-0.662,0.225,0.01
-6.309,0.444,-5.293,-0.686,0.228,0.004
-6.304,0.888,-5.175,-0.698,0.253,0.015
-6.257,1.231,-5.08,-0.733,0.248,0.047
-6.299,1.634,-5.105,-0.77,0.28,0.083
-6.423,1.942,-5.102,-0.804,0.364,0.117
-6.234,2.197,-5.065,-0.82,0.446,0.176
-6.136,2.445,-5.071,-0.832,0.431,0.212
-6.042,2.671,-5.105,-0.813,0.474,0.237
-5.888,2.904,-5.07,-0.798,0.465,0.25
-5.561,3.17,-5.059,-0.802,0.39,0.283
-5.5,3.533,-5.091,-0.808,0.329,0.298
-5.279,3.9,-5.121,-0.791,0.369,0.327
-5.005,4.303,-5.051,-0.743,0.364,0.352
-4.786,4.695,-5.084,-0.667,0.275,0.378
-4.515,5.004,-5.018,-0.573,0.28,0.428
-4.174,5.348,-4.995,-0.499,0.167,0.505
-3.863,5.643,-4.883,-0.457,0.04,0.601
-3.554,5.877,-4.805,-0.468,-0.116,0.712
-3.272,6.296,-4.694,-0.503,-0.068,0.83
-2.962,6.825,-4.625,-0.536,-0.122,0.871
-2.538,7.296,-4.461,-0.524,-0.113,0.832
-2.306,7.697,-4.348,-0.472,-0.141,0.739
-1.931,8.039,-4.193,-0.399,-0.146,0.611
-1.707,8.173,-4.008,-0.336,-0.262,0.456
-1.547,8.235,-3.864,-0.292,-0.328,0.332
-1.649,8.219,-3.751,-0.28,-0.341,0.246
-1.517,8.35,-3.659,-0.278,-0.318,0.18
-1.594,8.521,-3.536,-0.253,-0.37,0.092
-1.44,8.674,-3.386,-0.2,-0.472,-0.019
-1.601,8.803,-3.278,-0.11,-0.689,-0.192
-1.97,8.85,-3.224,-0.005,-0.746,-0.424
-2.363,8.724,-3.062,0.087,-0.769,-0.66
-2.882,8.498,-3.07,0.18,-0.712,-0.83
-3.486,8.151,-3.028,0.291,-0.675,-0.936
-3.934,7.539,-2.913,0.405,-0.567,-0.966
-4.244,6.896,-2.802,0.529,-0.647,-0.924
-4.818,6.081,-2.883,0.627,-0.747,-0.872
-5.247,5.318,-2.902,0.685,-0.768,-0.811
-5.707,4.599,-3.069,0.687,-0.668,-0.754
-6.016,4.133,-3.29,0.663,-0.556,-0.685
-6.403,3.827,-3.582,0.644,-0.462,-0.605
-6.484,3.753,-3.689,0.686,-0.425,-0.518
-6.714,3.621,-3.843,0.753,-0.474,-0.456
-6.838,3.538,-3.912,0.865,-0.514,-0.41
-7.067,3.305,-3.921,0.964,-0.576,-0.418
-7.208,2.942,-3.762,1.039,-0.624,-0.471
-7.358,2.466,-3.655,1.064,-0.547,-0.502
-7.389,2.063,-3.415,1.079,-0.432,-0.525
-7.388,1.663,-3.116,1.043,-0.401,-0.516
-7.513,1.373,-2.856,0.986,-0.35,-0.479
-7.278,1.095,-2.503,0.916,-0.325,-0.391
-7.393,0.821,-2.142,0.862,-0.43,-0.315
-7.367,0.609,-1.759,0.807,-0.594,-0.276
-7.648,0.299,-1.525,0.802,-0.608,-0.247
-7.793,0.189,-1.212,0.855,-0.621,-0.206
-8.222,0.129,-1.017,0.95,-0.533,-0.163
-8.293,0.139,-0.914,1.045,-0.403,-0.113
-8.309,0.002,-0.949,1.116,-0.29,-0.003
-8.324,-0.016,-0.958,1.136,-0.276,0.102
-8.245,-0.156,-0.99,1.098,-0.229,0.22
-8.234,-0.299,-1.037,1.0,-0.285,0.285
-8.39,-0.461,-1.051,0.869,-0.276,0.318
-8.604,-0.491,-0.972,0.732,-0.181,0.318
-8.77,-0.439,-0.793,0.595,-0.132,0.295
-8.913,-0.451,-0.677,0.455,-0.06,0.234
-8.9,-0.454,-0.484,0.312,0.055,0.195
-8.827,-0.345,-0.327,0.175,0.109,0.177
-8.822,-0.205,-0.205,0.058,0.142,0.173
-8.488,-0.155,-0.158,-0.051,0.18,0.178
-8.604,0.013,-0.054,-0.121,0.154,0.239
-8.768,0.308,-0.156,-0.141,0.213,0.299
-8.772,0.525,-0.263,-0.131,0.219,0.321
-8.66,0.631,-0.438,-0.107,0.211,0.333
-8.809,0.811,-0.567,-0.053,0.205,0.346
-8.579,0.96,-0.762,0.007,0.233,0.315
-8.418,0.999,-0.846,0.077,0.139,0.27
-8.428,1.015,-0.909,0.158,0.095,0.23
-8.587,1.057,-0.936,0.245,0.036,0.162
-8.757,1.095,-0.984,0.33,0.023,0.069
-8.93,1.142,-1.012,0.422,-0.045,-0.045
-9.259,1.249,-1.013,0.519,-0.11,-0.159
-9.257,1.088,-1.03,0.583,-0.167,-0.29
-9.392,0.962,-1.005,0.608,-0.165,-0.441
-9.287,0.8,-1.006,0.608,-0.088,-0.608
-9.097,0.458,-1.015,0.57,-0.006,-0.789
-8.779,-0.038,-1.063,0.47,0.095,-0.94
-8.905,-0.358,-1.113,0.33,0.213,-1.046
-8.677,-0.802,-1.25,0.167,0.277,-1.101
-8.487,-1.386,-1.309,-0.01,0.247,-1.128
-8.298,-2.012,-1.331,-0.188,0.183,-1.102
-8.02,-2.65,-1.36,-0.369,0.13,-1.073
-7.617,-3.293,-1.352,-0.545,0.029,-1.037
-7.443,-3.793,-1.296,-0.727,0.001,-1.024
-7.3,-4.158,-1.264,-0.907,-0.093,-1.013
-7.38,-4.367,-1.329,-1.099,-0.153,-1.013
-7.195,-4.516,-1.383,-1.291,-0.177,-1.044
-7.171,-4.593,-1.379,-1.459,-0.261,-1.076
-7.258,-4.634,-1.352,-1.588,-0.349,-1.04
-7.489,-4.604,-1.358,-1.708,-0.403,-0.976
-7.529,-4.497,-1.384,-1.812,-0.433,-0.916
-7.892,-4.347,-1.353,-1.872,-0.531,-0.869
-8.021,-4.092,-1.407,-1.893,-0.477,-0.845
-8.048,-3.864,-1.441,-1.844,-0.538,-0.866
-7.951,-3.717,-1.534,-1.745,-0.522,-0.89
-7.88,-3.639,-1.619,-1.589,-0.572,-0.905
-7.712,-3.585,-1.816,-1.408,-0.52,-0.872
-7.631,-3.613,-2.047,-1.201,-0.558,-0.805
-7.519,-3.71,-2.402,-0.995,-0.501,-0.684
-7.345,-3.717,-2.791,-0.79,-0.511,-0.561
-7.128,-3.797,-3.23,-0.616,-0.436,-0.474
-7.106,-3.756,-3.564,-0.452,-0.316,-0.386
-6.915,-3.704,-3.949,-0.315,-0.233,-0.288
-6.747,-3.634,-4.239,-0.228,-0.222,-0.242
-6.76,-3.696,-4.445,-0.176,-0.163,-0.164
-6.831,-3.746,-4.487,-0.162,-0.089,-0.046
-6.555,-3.935,-4.528,-0.189,-0.167,0.047
-6.589,-4.132,-4.41,-0.234,-0.128,0.118
-6.469,-4.26,-4.259,-0.284,-0.004,0.194
-6.32,-4.29,-4.101,-0.329,0.06,0.23
-6.271,-4.21,-4.02,-0.332,0.122,0.26
-6.134,-4.092,-3.923,-0.299,0.207,0.313
-6.102,-3.912,-3.894,-0.226,0.044,0.335
-6.259,-3.754,-3.942,-0.134,-0.011,0.357
-6.309,-3.607,-4.039,-0.039,-0.111,0.35
-6.819,-3.493,-4.159,0.034,-0.244,0.384
-7.508,-3.091,-4.274,0.082,-0.206,0.458
-7.56,-2.704,-4.381,0.067,0.012,0.564
-7.206,-2.475,-4.393,-0.021,0.027,0.614
-7.484,-2.001,-4.4,-0.135,0.031,0.702
-7.147,-1.388,-4.305,-0.255,0.179,0.837
-6.771,-1.09,-4.276,-0.364,0.062,0.898
-6.826,-0.753,-4.225,-0.454,-0.029,0.953
-7.328,-0.201,-4.246,-0.472,-0.009,1.011
-7.092,0.261,-4.218,-0.451,0.055,1.058
-6.971,0.552,-4.194,-0.392,0.027,1.025
-7.124,1.14,-4.267,-0.311,0.065,1.013
-7.023,1.728,-4.331,-0.227,0.219,1.024
-6.771,2.423,-4.419,-0.118,0.104,1.024
-6.664,3.029,-4.45,-0.006,0.09,1.11
-6.593,3.82,-4.592,0.098,-0.079,1.209
-5.921,4.175,-4.535,0.157,-0.143,1.26
-5.688,4.708,-4.479,0.233,-0.38,1.213
-5.328,5.085,-4.424,0.258,-0.442,1.283
-5.159,5.297,-4.352,0.248,-0.461,1.281
-4.57,5.325,-4.272,0.213,-0.461,1.227
-4.606,5.604,-4.171,0.218,-0.489,1.192
-4.137,5.777,-4.082,0.22,-0.581,1.243
-4.051,5.798,-3.844,0.242,-0.716,1.204
-3.851,6.107,-3.724,0.271,-0.914,1.138
-3.916,6.468,-3.416,0.326,-1.019,1.068
-3.843,6.912,-3.177,0.366,-1.207,1.022
-4.214,7.511,-3.017,0.415,-1.289,1.038
-4.119,8.333,-2.837,0.467,-1.279,1.094
-3.735,8.264,-2.556,0.509,-1.531,1.065
-3.887,8.335,-2.453,0.51,-1.623,1.043
-3.688,8.743,-2.355,0.522,-1.443,1.117
