ax,ay,az,gx,gy,gz
-2.246,-2.271,-8.579,-0.124,-0.339,-0.118
-2.085,-2.318,-8.559,-0.165,-0.115,-0.058
-2.054,-2.134,-8.393,-0.173,-0.122,-0.031
-2.167,-1.992,-8.123,-0.21,-0.11,0.007
-2.454,-1.508,-8.352,-0.225,0.087,0.056
-2.077,-0.718,-8.446,-0.192,0.254,0.068
-2.054,-0.215,-8.663,-0.007,0.042,-0.088
-2.062,0.068,-9.316,0.257,0.207,-0.202
-1.477,0.081,-9.767,0.636,0.306,-0.333
-0.851,-0.372,-9.759,1.034,0.15,-0.48
-0.786,-1.479,-9.721,1.372,0.105,-0.596
-0.528,-2.522,-9.207,1.543,0.13,-0.614
-0.544,-3.727,-8.336,1.599,-0.112,-0.63
-1.062,-4.792,-7.751,1.545,-0.154,-0.605
-1.564,-5.779,-7.285,1.412,-0.067,-0.528
-1.848,-6.774,-7.201,1.237,-0.143,-0.405
-2.418,-8.03,-7.367,1.015,-0.136,-0.307
-2.527,-9.08,-7.49,0.752,0.104,-0.191
-2.311,-9.849,-7.16,0.497,0.247,-0.097
-1.936,-10.146,-6.769,0.273,0.365,0.014
-1.549,-10.078,-6.42,0.138,0.509,0.101
-0.955,-9.488,-5.808,0.086,0.623,0.172
-0.529,-8.477,-5.238,0.086,0.594,0.228
-0.128,-7.453,-4.856,0.093,0.57,0.212
0.313,-6.536,-4.314,0.119,0.588,0.13
0.54,-5.751,-3.698,0.138,0.56,0.048
0.536,-5.2,-3.337,0.174,0.485,0.013
0.624,-5.275,-3.262,0.194,0.496,-0.03
0.893,-5.79,-3.489,0.189,0.484,-0.016
1.312,-6.546,-3.908,0.144,0.448,0.0
1.922,-7.098,-4.376,0.091,0.406,0.002
2.603,-7.353,-4.648,0.041,0.341,-0.019
2.991,-7.205,-4.793,0.035,0.163,-0.009
3.171,-6.862,-4.846,0.062,0.025,0.004
3.21,-6.525,-4.89,0.1,-0.145,0.063
2.95,-6.541,-5.07,0.1,-0.345,0.133
2.534,-7.217,-5.421,0.041,-0.473,0.141
1.82,-8.599,-5.98,-0.126,-0.642,0.148
0.55,-9.964,-6.472,-0.352,-0.759,0.091
-0.751,-10.756,-6.323,-0.598,-0.709,-0.021
-1.746,-11.0,-5.907,-0.78,-0.655,-0.137
-2.539,-10.552,-5.145,-0.845,-0.56,-0.23
-2.651,-9.353,-4.029,-0.752,-0.371,-0.397
-2.328,-7.91,-2.81,-0.512,-0.348,-0.481
-2.265,-7.276,-2.682,-0.2,-0.565,-0.535
-2.116,-7.175,-3.001,0.06,-0.557,-0.632
-1.543,-7.871,-3.933,0.224,-0.615,-0.706
-0.956,-8.659,-4.818,0.27,-0.707,-0.708
-0.321,-9.365,-5.561,0.193,-0.711,-0.759
0.444,-9.51,-5.47,0.084,-0.591,-0.808
0.943,-9.154,-4.851,0.02,-0.619,-0.819
1.111,-8.355,-3.976,-0.007,-0.572,-0.822
1.413,-8.075,-3.426,0.02,-0.499,-0.863
1.834,-8.212,-3.366,0.073,-0.471,-0.873
2.174,-8.685,-3.974,0.086,-0.511,-0.84
2.152,-9.46,-5.157,0.053,-0.509,-0.804
1.978,-10.252,-5.889,-0.003,-0.41,-0.736
1.052,-9.972,-6.424,-0.067,-0.539,-0.583
-0.029,-9.469,-6.603,-0.121,-0.485,-0.459
-0.152,-9.094,-6.209,-0.177,-0.174,-0.334
0.486,-8.635,-5.134,-0.21,-0.073,-0.249
1.021,-7.9,-4.368,-0.224,-0.214,-0.277
1.997,-7.785,-3.372,-0.2,-0.081,-0.457
2.927,-8.267,-2.543,-0.121,-0.286,-0.716
2.602,-8.993,-2.334,0.046,-0.829,-1.124
1.885,-10.098,-2.751,0.203,-1.173,-1.493
1.43,-11.393,-3.402,0.296,-1.408,-1.814
1.15,-12.245,-4.337,0.381,-1.593,-2.009
0.643,-12.369,-4.877,0.446,-1.59,-2.078
0.281,-11.42,-4.815,0.498,-1.313,-1.961
-0.009,-9.397,-4.304,0.579,-0.935,-1.913
0.341,-7.741,-3.561,0.773,-0.321,-1.863
1.464,-7.162,-3.116,0.977,0.237,-1.702
3.199,-6.416,-3.103,1.001,0.537,-1.509
4.994,-6.6,-3.026,0.95,0.616,-1.376
6.853,-7.848,-3.224,0.827,0.582,-1.186
7.838,-8.742,-3.072,0.611,0.245,-1.104
7.264,-8.614,-2.515,0.368,-0.288,-1.175
6.069,-8.263,-2.074,0.29,-0.432,-1.063
5.613,-7.941,-2.084,0.29,-0.239,-0.989
5.629,-7.378,-1.318,0.332,0.024,-0.898
6.214,-6.263,-1.121,0.393,0.157,-0.713
7.438,-5.569,-1.113,0.494,0.502,-0.46
9.115,-5.862,-0.835,0.545,0.556,-0.455
9.855,-5.807,-0.591,0.449,0.258,-0.475
9.78,-5.548,-0.733,0.325,-0.095,-0.475
9.213,-5.713,-0.637,0.184,-0.222,-0.381
8.522,-6.067,-0.643,0.027,-0.36,-0.264
7.746,-6.297,-0.52,-0.055,-0.224,-0.059
7.952,-6.578,-0.391,0.042,0.081,0.154
8.67,-7.043,-0.018,0.136,0.224,0.195
9.353,-7.094,0.179,0.232,0.179,0.194
9.796,-7.084,0.195,0.238,0.091,0.042
10.164,-6.662,0.187,0.184,0.044,-0.145
10.141,-6.552,0.207,0.044,-0.187,-0.346
9.783,-6.117,-0.157,-0.069,-0.29,-0.409
9.563,-6.087,-0.587,-0.146,-0.209,-0.494
9.602,-5.719,-0.682,-0.157,-0.1,-0.468
9.636,-5.551,-0.677,-0.166,-0.205,-0.475
9.145,-4.782,-0.589,-0.23,-0.352,-0.363
8.366,-4.298,-1.129,-0.284,-0.406,-0.031
8.179,-4.761,-1.317,-0.248,-0.037,0.328
8.583,-5.556,-1.276,-0.235,0.06,0.523
8.586,-5.76,-1.224,-0.192,-0.005,0.595
9.064,-5.795,-0.962,-0.032,0.183,0.571
10.227,-5.749,-0.336,0.109,0.275,0.293
10.97,-5.264,-0.082,0.155,-0.154,0.037
11.269,-4.884,-0.082,0.218,-0.434,-0.09
11.646,-4.759,0.042,0.338,-0.735,0.002
11.351,-4.819,0.285,0.422,-1.542,0.246
9.828,-4.959,0.09,0.587,-2.296,0.614
7.674,-4.562,0.249,0.788,-2.6,1.169
5.127,-4.295,0.491,0.903,-2.806,1.802
2.332,-4.96,-0.096,0.786,-2.833,2.125
-0.219,-6.34,-1.125,0.576,-2.234,2.386
-1.989,-7.812,-1.785,0.341,-1.58,2.454
-3.327,-9.319,-3.138,0.088,-1.19,2.223
-4.168,-10.53,-4.239,0.001,-0.659,1.789
-4.113,-11.073,-4.785,0.081,-0.007,1.542
-3.579,-11.295,-5.248,0.255,0.268,1.199
-2.92,-11.373,-5.441,0.328,0.536,0.9
-1.996,-11.17,-5.013,0.327,0.756,0.578
-1.134,-10.564,-4.436,0.237,0.767,0.266
-0.523,-9.772,-3.965,0.16,0.668,-0.019
-0.055,-9.018,-3.418,0.082,0.602,-0.25
0.22,-8.293,-3.008,0.093,0.334,-0.393
0.037,-8.259,-2.881,0.12,-0.049,-0.403
-0.535,-8.623,-3.121,0.122,-0.331,-0.367
-1.098,-9.132,-3.436,0.054,-0.434,-0.318
-1.686,-9.35,-3.749,-0.042,-0.41,-0.251
-1.905,-9.563,-3.963,-0.178,-0.256,-0.216
-2.06,-9.241,-3.932,-0.291,-0.01,-0.201
-1.697,-8.786,-3.793,-0.324,0.249,-0.12
-1.335,-8.422,-3.611,-0.276,0.366,-0.016
-1.111,-8.166,-3.34,-0.18,0.442,0.083
-1.316,-7.955,-3.259,-0.049,0.539,0.229
-1.706,-7.997,-3.349,0.117,0.686,0.362
-2.043,-8.225,-3.563,0.248,0.885,0.468
-2.189,-8.909,-4.054,0.348,1.021,0.613
-2.43,-9.496,-4.449,0.351,1.145,0.676
-2.355,-9.432,-4.693,0.321,1.431,0.673
-1.617,-9.26,-4.693,0.23,1.556,0.69
-1.07,-8.989,-4.716,0.125,1.511,0.719
-0.749,-8.393,-4.524,0.003,1.516,0.675
-0.029,-7.985,-4.42,-0.057,1.574,0.655
0.609,-8.028,-4.323,-0.075,1.365,0.629
0.825,-8.174,-4.4,-0.032,1.152,0.561
0.942,-8.47,-4.507,0.039,0.971,0.44
1.019,-8.67,-4.451,0.127,0.813,0.26
0.868,-8.516,-4.502,0.226,0.55,0.095
0.435,-8.479,-4.769,0.29,0.345,-0.005
0.112,-8.472,-4.956,0.31,0.354,-0.064
-0.229,-8.252,-4.935,0.318,0.468,-0.046
-0.516,-8.275,-5.088,0.317,0.507,0.103
-0.773,-8.602,-4.989,0.283,0.681,0.223
-0.722,-8.776,-4.473,0.237,0.909,0.372
-0.917,-8.849,-4.018,0.223,0.901,0.537
-1.162,-9.061,-3.732,0.184,0.995,0.673
-1.243,-9.033,-3.3,0.147,1.132,0.718
-1.279,-9.047,-2.996,0.133,1.176,0.799
-1.304,-9.361,-2.853,0.125,1.129,0.798
-1.164,-9.846,-2.673,0.074,1.223,0.72
-0.743,-10.304,-2.384,0.04,1.126,0.58
-0.401,-10.733,-1.973,0.011,0.986,0.389
-0.024,-11.016,-1.366,-0.007,0.785,0.157
0.332,-11.009,-0.921,-0.012,0.583,-0.1
0.81,-10.917,-0.758,0.012,0.287,-0.343
1.022,-10.788,-0.904,0.023,-0.056,-0.564
1.102,-10.621,-1.265,0.057,-0.308,-0.727
1.262,-10.698,-1.733,0.081,-0.5,-0.887
1.156,-10.769,-2.096,0.135,-0.741,-0.976
0.813,-10.461,-2.193,0.228,-0.952,-1.025
0.326,-10.258,-2.137,0.395,-1.186,-1.049
0.02,-9.98,-2.125,0.497,-1.454,-1.095
-0.1,-9.677,-2.348,0.508,-1.67,-1.089
0.135,-9.459,-2.351,0.462,-1.782,-1.104
0.661,-9.587,-2.312,0.387,-1.873,-1.112
1.238,-9.651,-2.08,0.266,-2.021,-1.124
1.362,-9.803,-1.598,0.208,-2.185,-1.152
1.055,-9.522,-0.904,0.258,-2.351,-1.2
0.658,-9.466,-0.391,0.375,-2.561,-1.272
0.077,-9.54,0.19,0.515,-2.821,-1.309
-0.25,-10.135,0.497,0.646,-3.033,-1.15
-0.534,-11.053,0.413,0.599,-3.3,-0.948
-1.106,-11.444,-0.066,0.417,-3.484,-0.781
-1.794,-11.391,-0.439,0.244,-3.403,-0.648
-1.975,-11.265,-0.914,0.073,-3.181,-0.568
-2.15,-10.782,-1.163,-0.06,-2.989,-0.671
-2.032,-10.126,-1.152,-0.067,-2.627,-0.73
-1.569,-9.979,-1.0,-0.03,-2.295,-0.722
-1.015,-9.9,-1.072,-0.053,-2.073,-0.645
-0.967,-9.761,-1.371,-0.091,-1.897,-0.553
-0.957,-9.524,-1.874,-0.13,-1.504,-0.465
-0.583,-9.475,-2.425,-0.09,-1.126,-0.449
-0.336,-9.458,-2.881,0.003,-1.036,-0.425
-0.447,-9.528,-3.49,0.119,-1.12,-0.385
-0.548,-10.095,-4.201,0.129,-1.044,-0.345
-0.367,-10.61,-4.734,0.044,-0.819,-0.35
-0.276,-10.462,-4.967,-0.086,-0.64,-0.365
0.11,-10.066,-4.865,-0.151,-0.476,-0.442
0.635,-9.679,-4.42,-0.215,-0.397,-0.558
1.198,-8.866,-3.686,-0.204,-0.378,-0.665
1.596,-8.218,-3.219,-0.147,-0.475,-0.664
1.788,-7.974,-3.136,-0.073,-0.587,-0.606
2.01,-8.2,-3.397,-0.035,-0.437,-0.504
2.51,-8.592,-3.733,0.017,-0.216,-0.396
2.895,-8.934,-3.964,0.069,-0.138,-0.322
3.056,-9.125,-4.008,0.109,-0.124,-0.308
3.067,-9.132,-3.836,0.117,-0.096,-0.349
3.032,-9.222,-3.635,0.102,-0.068,-0.323
3.081,-9.435,-3.322,0.047,-0.057,-0.217
3.238,-9.758,-2.827,-0.006,-0.036,-0.096
3.307,-9.634,-2.03,-0.074,-0.266,0.014
2.89,-9.322,-1.192,-0.122,-0.654,0.188
2.103,-8.858,-0.526,-0.179,-1.048,0.431
1.179,-8.451,-0.184,-0.201,-1.302,0.667
-0.152,-7.848,-0.362,-0.279,-1.661,0.901
-1.755,-7.767,-0.83,-0.303,-1.844,1.097
-3.105,-8.386,-1.574,-0.365,-1.822,1.212
-4.116,-8.954,-2.282,-0.469,-1.735,1.097
-5.224,-9.352,-2.749,-0.591,-1.513,0.84
-5.682,-9.54,-2.992,-0.608,-1.098,0.525
-5.845,-9.561,-3.239,-0.588,-0.813,0.236
-5.962,-9.197,-3.495,-0.495,-0.506,-0.036
-5.826,-9.064,-3.655,-0.337,-0.121,-0.302
-5.188,-8.887,-3.855,-0.166,0.087,-0.475
-4.487,-9.086,-3.942,-0.068,0.12,-0.586
-3.728,-9.231,-3.935,-0.072,0.309,-0.68
-2.938,-8.83,-3.709,-0.106,0.485,-0.705
-2.333,-8.017,-3.524,-0.075,0.512,-0.603
-2.002,-7.662,-3.556,-0.051,0.506,-0.5
-1.766,-7.312,-3.748,-0.037,0.656,-0.382
-1.383,-7.288,-4.241,-0.039,0.762,-0.216
-0.871,-7.776,-4.853,-0.108,0.886,-0.088
-0.214,-8.423,-5.221,-0.243,1.2,-0.001
0.689,-8.524,-5.172,-0.358,1.482,0.097
1.395,-8.421,-5.046,-0.377,1.435,0.188
1.688,-8.154,-4.745,-0.309,1.272,0.252
1.897,-7.888,-4.422,-0.17,1.11,0.306
1.909,-7.731,-4.331,-0.033,0.793,0.322
1.57,-7.627,-4.542,0.083,0.493,0.29
1.244,-7.696,-4.809,0.144,0.413,0.223
1.201,-7.872,-5.118,0.176,0.411,0.174
1.147,-8.437,-5.198,0.201,0.307,0.149
0.918,-8.93,-5.099,0.215,0.191,0.141
0.592,-9.497,-4.888,0.215,0.082,0.1
0.176,-9.796,-4.559,0.177,0.013,0.019
-0.267,-9.616,-4.091,0.131,-0.006,-0.074
-0.504,-9.129,-3.895,0.067,-0.035,-0.139
-0.517,-8.864,-3.872,0.011,-0.054,-0.188
-0.267,-8.674,-3.887,-0.072,-0.012,-0.198
0.037,-8.529,-3.846,-0.125,0.021,-0.156
0.371,-8.64,-3.827,-0.179,0.047,-0.101
0.619,-8.645,-3.557,-0.252,0.072,-0.058
0.766,-8.568,-3.195,-0.35,0.026,0.007
0.561,-8.4,-2.9,-0.45,-0.125,0.117
0.139,-8.496,-2.995,-0.614,-0.293,0.183
-0.248,-8.515,-3.352,-0.788,-0.383,0.175
-0.546,-8.347,-4.262,-0.978,-0.584,0.091
-1.04,-8.129,-6.12,-1.013,-0.536,-0.085
-0.61,-7.909,-7.711,-0.854,-0.213,-0.205
-0.048,-7.795,-8.573,-0.623,-0.28,-0.31
-0.161,-7.612,-8.616,-0.47,-0.442,-0.415
-0.684,-6.999,-8.35,-0.294,-0.28,-0.465
-0.593,-6.481,-7.428,-0.148,-0.121,-0.471
-0.922,-6.103,-6.84,-0.043,-0.26,-0.548
-1.208,-5.718,-6.962,0.1,-0.018,-0.551
-0.672,-5.676,-7.671,0.337,0.423,-0.439
0.513,-6.384,-7.903,0.539,0.744,-0.262
1.315,-6.91,-7.384,0.619,0.759,-0.02
1.435,-7.284,-6.427,0.576,0.76,0.193
1.448,-7.441,-5.058,0.49,0.784,0.306
1.671,-7.648,-3.782,0.411,0.681,0.288
1.711,-7.787,-2.887,0.418,0.35,0.133
1.897,-7.99,-2.602,0.445,0.051,-0.055
2.53,-8.299,-2.529,0.47,-0.148,-0.18
3.016,-8.734,-2.885,0.49,-0.43,-0.206
3.113,-9.102,-3.225,0.47,-0.548,-0.169
3.149,-9.559,-3.503,0.411,-0.553,-0.141
2.916,-10.14,-3.457,0.343,-0.556,-0.108
2.375,-10.559,-3.206,0.259,-0.458,-0.081
2.073,-11.116,-2.413,0.103,-0.256,-0.056
1.457,-11.325,-1.581,-0.131,-0.46,-0.113
0.332,-11.06,-0.906,-0.469,-0.776,-0.231
-0.999,-10.214,-0.43,-0.832,-1.125,-0.379
-2.117,-9.323,-0.474,-1.166,-1.643,-0.532
-3.317,-8.108,-1.168,-1.428,-2.299,-0.741
-4.22,-7.033,-2.149,-1.533,-2.64,-0.88
-4.726,-6.348,-3.079,-1.502,-2.907,-0.882
-5.195,-6.08,-4.402,-1.398,-3.056,-0.86
-5.482,-6.001,-5.659,-1.253,-2.823,-0.871
-5.376,-6.127,-6.748,-1.054,-2.479,-0.868
-5.303,-6.314,-7.601,-0.875,-2.1,-0.844
-5.028,-6.362,-8.335,-0.67,-1.452,-0.772
-4.475,-6.282,-8.453,-0.42,-0.742,-0.639
-4.031,-6.202,-8.384,-0.167,-0.169,-0.463
-3.787,-6.267,-8.003,0.074,0.442,-0.216
-3.302,-6.405,-7.416,0.318,0.846,0.088
-3.286,-6.49,-6.64,0.515,1.09,0.291
-3.301,-6.411,-5.802,0.671,1.354,0.446
-3.119,-6.388,-4.869,0.801,1.429,0.542
-2.691,-6.504,-4.024,0.865,1.295,0.575
-2.537,-6.795,-3.307,0.839,1.022,0.533
-2.18,-7.272,-2.873,0.69,0.684,0.539
-1.734,-8.003,-2.751,0.379,0.292,0.482
-1.379,-8.481,-2.676,-0.025,-0.158,0.417
-1.375,-8.716,-2.67,-0.447,-0.547,0.36
-1.538,-8.553,-2.625,-0.843,-0.851,0.343
-1.692,-8.257,-2.466,-1.174,-1.02,0.374
-1.566,-7.71,-2.152,-1.475,-1.24,0.564
-2.394,-6.734,-2.036,-1.749,-1.5,0.856
-3.201,-5.721,-2.15,-2.093,-1.172,1.322
-4.943,-3.697,-2.474,-2.365,-0.591,1.631
-6.633,-0.627,-3.72,-2.564,0.305,1.832
-7.559,1.912,-5.11,-2.569,0.615,1.651
-8.173,3.606,-6.153,-2.399,1.008,1.287
-8.064,5.503,-6.557,-2.091,1.291,0.718
-6.452,6.253,-6.937,-1.773,1.078,0.217
-5.233,5.789,-6.428,-1.472,0.466,-0.159
-5.198,5.841,-5.976,-1.209,0.569,-0.271
-4.537,6.058,-5.726,-1.064,0.781,-0.334
-4.511,6.259,-5.797,-0.891,0.433,-0.45
-4.916,6.462,-5.536,-0.797,0.45,-0.588
-4.998,6.975,-5.278,-0.79,0.552,-0.893
-4.65,7.166,-5.073,-0.875,0.655,-1.279
-4.335,7.174,-4.756,-0.997,0.666,-1.634
-4.069,6.909,-4.53,-1.282,0.774,-1.918
-4.131,6.599,-4.569,-1.617,0.962,-2.067
-4.013,6.126,-4.788,-1.863,1.338,-2.015
-4.252,5.659,-4.782,-2.004,1.599,-1.865
-4.656,5.331,-4.819,-2.094,1.687,-1.687
-5.318,4.854,-4.941,-2.114,1.736,-1.632
-5.758,4.492,-4.785,-2.012,1.997,-1.668
-5.973,4.637,-4.584,-1.803,1.862,-1.883
-6.211,4.951,-4.348,-1.6,1.502,-2.186
-6.24,5.342,-4.04,-1.415,1.311,-2.51
-5.851,5.87,-3.367,-1.237,1.142,-2.689
-5.496,6.318,-2.969,-1.171,0.602,-2.78
-5.366,6.115,-2.37,-1.283,0.236,-2.72
-5.23,5.711,-1.916,-1.494,-0.052,-2.539
-5.071,5.227,-1.563,-1.787,-0.224,-2.284
-4.907,4.955,-1.76,-2.105,-0.32,-2.063
-5.152,4.686,-2.39,-2.364,-0.293,-1.85
-6.458,4.701,-3.507,-2.417,-0.337,-1.521
-8.088,5.199,-4.407,-2.28,-0.194,-1.099
-8.944,5.106,-4.802,-1.992,-0.009,-0.775
-8.833,4.421,-4.568,-1.545,0.246,-0.456
-7.731,3.925,-3.633,-1.032,0.449,-0.258
-5.989,3.317,-2.557,-0.624,0.556,-0.222
-5.37,2.659,-2.256,-0.339,0.266,-0.215
-7.039,2.984,-2.647,-0.206,-0.019,-0.079
-9.063,3.371,-3.284,-0.217,-0.154,0.039
-9.885,3.039,-3.675,-0.272,-0.108,0.147
-9.151,2.539,-3.579,-0.277,0.239,0.105
-6.901,1.98,-2.867,-0.222,0.694,-0.002
-4.585,1.601,-2.585,-0.059,0.451,-0.239
-5.502,2.067,-2.458,0.074,0.117,-0.25
-7.624,2.657,-3.069,0.17,-0.05,-0.138
-9.261,3.019,-3.766,0.12,-0.21,0.097
-9.773,2.564,-3.91,0.01,-0.074,0.104
-8.525,1.613,-3.194,-0.113,0.58,0.177
-5.481,1.198,-2.767,-0.108,0.788,0.013
-4.99,1.94,-2.484,-0.061,0.533,-0.041
-6.387,2.609,-2.992,-0.117,0.053,0.001
-8.043,3.141,-4.093,-0.259,-0.152,0.19
-8.846,3.181,-5.005,-0.335,-0.045,0.243
-8.521,2.833,-5.249,-0.306,0.316,0.294
-6.087,1.973,-4.99,-0.216,0.4,0.128
-4.534,1.907,-4.016,0.056,0.402,-0.218
-4.804,2.569,-2.992,0.396,0.22,-0.455
-6.428,3.746,-2.231,0.689,-0.111,-0.501
-8.021,4.008,-1.971,0.836,-0.483,-0.403
-9.487,3.678,-1.775,0.908,-0.65,-0.175
-9.78,2.83,-1.737,0.918,-0.566,0.152
-9.002,1.83,-1.745,0.895,-0.555,0.38
-8.246,0.993,-1.934,0.845,-0.567,0.521
-7.797,0.519,-1.778,0.813,-0.517,0.596
-7.627,0.362,-1.629,0.796,-0.463,0.642
-7.909,0.695,-1.558,0.788,-0.453,0.598
-8.048,1.379,-1.564,0.812,-0.317,0.512
-7.932,2.269,-1.655,0.904,-0.357,0.441
-8.022,3.239,-1.918,1.027,-0.548,0.379
-8.075,4.139,-2.137,1.171,-0.453,0.305
-7.556,4.779,-2.25,1.4,-0.39,0.339
-7.281,5.012,-2.354,1.682,-0.611,0.449
-7.234,4.804,-2.449,1.949,-0.733,0.54
-7.105,4.304,-2.396,2.227,-0.62,0.603
-6.967,3.738,-2.408,2.512,-0.723,0.63
-7.255,2.888,-2.442,2.713,-0.83,0.57
-7.571,2.0,-2.491,2.765,-0.781,0.464
-7.815,1.126,-2.465,2.652,-0.65,0.328
-8.011,0.427,-2.512,2.379,-0.5,0.172
-8.235,-0.099,-2.464,1.994,-0.287,0.083
-8.852,-0.404,-2.296,1.573,-0.114,0.036
-9.465,-0.603,-2.033,1.183,0.087,0.054
-9.879,-0.821,-1.789,0.871,0.124,0.11
-10.076,-0.91,-1.52,0.635,0.165,0.142
-9.457,-1.167,-1.278,0.47,0.259,0.091
-8.198,-1.57,-1.144,0.376,0.208,0.052
-7.441,-1.805,-1.009,0.315,0.026,0.014
-7.329,-1.739,-0.931,0.249,0.016,-0.039
-7.483,-1.684,-0.982,0.164,0.023,-0.094
-7.918,-1.571,-1.194,0.055,-0.084,-0.142
-8.549,-1.369,-1.522,-0.09,-0.024,-0.169
-8.775,-1.197,-1.881,-0.234,0.153,-0.202
-8.917,-1.141,-2.228,-0.354,0.146,-0.13
-9.37,-0.751,-2.672,-0.441,0.063,-0.091
-9.28,-0.855,-3.067,-0.578,0.241,-0.173
-9.471,-0.582,-3.198,-0.609,0.385,-0.286
-9.683,-0.206,-3.233,-0.507,0.526,-0.416
-8.941,-0.317,-3.203,-0.364,0.516,-0.692
-7.909,-0.952,-2.838,-0.25,0.405,-0.936
-7.615,-1.082,-2.321,-0.142,0.33,-0.961
-6.813,-1.666,-1.945,-0.212,0.156,-0.92
-6.113,-2.554,-1.656,-0.532,-0.184,-0.881
-6.374,-2.854,-1.346,-0.994,-0.229,-0.786
-6.956,-2.724,-1.159,-1.471,-0.112,-0.673
-7.498,-2.559,-0.96,-1.908,-0.162,-0.601
-8.551,-2.303,-0.705,-2.248,-0.285,-0.586
-10.135,-1.466,-0.287,-2.467,-0.194,-0.66
-10.508,-0.747,-0.065,-2.606,-0.061,-0.807
-10.185,-0.524,0.022,-2.683,-0.169,-0.951
-10.2,-0.169,0.131,-2.713,-0.271,-1.066
-9.909,0.207,0.142,-2.727,-0.138,-1.149
-9.134,0.202,-0.058,-2.679,-0.178,-1.186
-9.089,0.111,-0.139,-2.554,-0.262,-1.163
-9.28,0.219,-0.132,-2.378,-0.16,-1.12
-9.066,0.193,-0.355,-2.151,-0.086,-1.093
-8.728,0.16,-0.772,-1.865,-0.098,-1.038
-8.245,0.017,-1.308,-1.566,0.031,-0.868
-7.8,-0.063,-1.984,-1.263,0.111,-0.655
-7.503,0.006,-2.721,-0.961,0.141,-0.386
-7.571,-0.024,-3.431,-0.671,0.057,-0.16
-8.33,0.328,-4.073,-0.429,0.117,0.043
-8.685,0.665,-4.612,-0.291,0.242,0.168
-8.299,0.941,-4.999,-0.233,0.227,0.199
-7.551,0.745,-5.202,-0.212,0.228,0.203
-6.798,0.731,-5.13,-0.195,0.281,0.286
-5.883,0.48,-4.888,-0.171,0.166,0.366
-5.642,0.451,-4.556,-0.062,-0.053,0.391
-5.785,0.291,-4.156,0.094,-0.097,0.46
-6.385,0.474,-3.869,0.285,-0.217,0.456
-7.137,0.627,-3.708,0.459,-0.202,0.382
-7.792,0.851,-3.747,0.652,-0.252,0.307
-7.935,1.036,-3.634,0.82,-0.189,0.229
-8.449,1.396,-3.758,0.971,-0.275,0.227
-9.183,1.628,-3.808,1.041,-0.26,0.291
-9.19,1.703,-3.912,1.017,-0.266,0.35
-8.365,1.439,-3.767,0.888,-0.21,0.37
-7.539,1.006,-3.684,0.741,-0.289,0.447
-7.157,0.683,-3.376,0.635,-0.127,0.509
-6.637,0.772,-3.272,0.619,0.148,0.61
-6.587,1.264,-3.299,0.762,0.337,0.785
-6.638,1.909,-3.5,0.986,0.292,1.004
-7.488,2.548,-4.088,1.175,0.0,1.21
-7.741,3.041,-4.507,1.204,-0.082,1.357
-7.222,3.152,-4.885,1.102,-0.282,1.368
-6.74,3.22,-5.134,0.93,-0.507,1.213
-6.39,3.233,-5.349,0.765,-0.405,1.008
-5.553,3.417,-5.4,0.697,-0.165,0.793
-5.09,3.663,-5.596,0.789,-0.222,0.579
-5.105,3.821,-5.656,0.994,-0.287,0.438
-5.099,3.603,-5.643,1.219,-0.339,0.378
-5.429,3.324,-5.54,1.429,-0.411,0.308
-5.563,2.72,-5.321,1.55,-0.411,0.243
-6.162,2.018,-5.241,1.584,-0.545,0.169
-7.176,1.498,-5.105,1.511,-0.418,0.072
-7.71,0.827,-5.004,1.331,-0.308,-0.003
-8.579,0.095,-4.898,1.096,-0.306,-0.041
-9.362,-0.356,-4.701,0.905,-0.122,-0.045
-8.745,-0.81,-4.311,0.773,0.166,-0.084
-7.339,-1.553,-4.049,0.71,0.08,-0.125
-6.579,-1.997,-3.705,0.705,0.034,-0.194
-5.606,-2.376,-3.535,0.697,0.148,-0.238
-5.065,-2.75,-3.615,0.661,0.125,-0.278
-5.555,-2.943,-3.879,0.583,0.165,-0.265
-6.314,-2.876,-4.175,0.472,0.256,-0.176
-7.16,-2.908,-4.837,0.327,0.191,0.011
-8.052,-2.563,-5.319,0.164,0.069,0.213
-8.548,-2.244,-5.492,-0.018,0.106,0.22
-8.413,-1.829,-5.359,-0.149,0.194,0.205
-8.308,-1.29,-5.098,-0.168,0.167,0.156
-7.471,-0.916,-4.533,-0.125,0.236,0.064
-6.259,-0.942,-4.002,-0.027,0.209,-0.09
-5.208,-1.152,-3.67,0.094,0.088,-0.066
-4.678,-1.585,-3.652,0.163,-0.196,-0.006
-4.557,-2.101,-3.752,0.099,-0.347,0.027
-5.418,-2.325,-4.029,-0.057,-0.424,-0.019
-6.87,-2.229,-4.344,-0.258,-0.303,-0.097
-8.118,-2.213,-4.806,-0.469,-0.294,-0.166
-9.209,-2.132,-4.992,-0.653,-0.337,-0.261
-9.391,-2.37,-4.951,-0.858,-0.312,-0.32
-9.897,-2.575,-4.514,-0.991,-0.464,-0.292
-10.101,-2.584,-3.742,-1.124,-0.203,-0.312
-9.165,-2.324,-2.794,-1.204,0.092,-0.472
-7.938,-1.989,-2.003,-1.228,0.26,-0.678
-7.598,-1.278,-1.477,-1.148,0.45,-0.852
-6.579,-0.462,-1.435,-0.999,0.863,-0.951
-5.476,-0.095,-1.954,-0.744,0.737,-0.894
-5.439,0.143,-2.702,-0.466,0.421,-0.562
-6.248,0.136,-3.634,-0.23,-0.028,-0.015
-7.625,0.259,-4.634,-0.031,-0.494,0.461
-8.534,-0.032,-5.274,0.028,-0.56,0.649
-8.923,-0.092,-5.451,0.091,-0.626,0.725
-9.641,-0.062,-5.298,0.199,-0.539,0.623
-9.191,0.018,-4.915,0.33,-0.124,0.335
-7.467,-0.346,-4.288,0.479,0.199,0.059
-6.082,-0.607,-3.731,0.701,0.023,-0.025
-5.385,-1.258,-3.472,0.791,-0.139,-0.029
-4.868,-2.077,-3.391,0.677,-0.256,-0.019
-5.496,-2.733,-3.427,0.417,-0.331,-0.035
-7.206,-2.883,-3.521,0.093,-0.221,-0.126
-8.469,-3.026,-3.817,-0.258,-0.073,-0.254
-9.614,-2.906,-3.958,-0.576,-0.067,-0.449
-10.057,-2.797,-3.777,-0.867,0.002,-0.608
-10.497,-2.701,-3.438,-1.09,-0.075,-0.677
-10.341,-2.511,-2.907,-1.331,0.075,-0.745
-9.613,-2.047,-2.34,-1.518,0.157,-0.899
-8.394,-1.688,-1.856,-1.596,0.305,-1.045
-7.438,-1.175,-1.658,-1.475,0.412,-1.142
-6.129,-0.75,-1.885,-1.186,0.555,-1.225
-4.834,-0.889,-2.416,-0.763,0.321,-1.152
-4.934,-1.212,-3.103,-0.323,0.04,-0.929
-5.384,-1.656,-3.798,0.024,-0.147,-0.58
-6.446,-2.238,-4.48,0.258,-0.559,-0.247
-8.083,-2.689,-4.874,0.383,-0.843,0.077
-9.252,-2.958,-4.856,0.362,-0.786,0.102
-9.73,-2.754,-4.486,0.274,-0.545,0.055
-9.975,-2.28,-3.992,0.21,-0.322,-0.021
-9.022,-2.035,-3.563,0.135,0.063,-0.104
-7.282,-1.964,-3.16,0.057,0.292,-0.232
-6.149,-1.999,-3.097,0.048,0.325,-0.122
-5.219,-2.559,-3.131,0.048,0.273,0.057
-4.916,-3.322,-3.22,-0.009,0.122,0.135
-5.729,-3.6,-3.255,-0.137,0.075,0.176
-6.887,-3.657,-3.342,-0.309,0.135,0.162
-8.321,-3.366,-3.619,-0.492,0.133,0.156
-8.72,-3.172,-3.737,-0.72,0.238,0.075
-9.057,-2.837,-3.713,-0.834,0.15,0.12
-9.859,-2.321,-3.563,-0.84,0.107,0.158
-9.299,-2.031,-3.358,-0.84,0.244,0.166
-7.731,-1.942,-3.067,-0.796,0.172,0.066
-7.454,-1.501,-3.027,-0.631,0.051,0.016
-6.8,-1.056,-3.232,-0.472,0.311,-0.087
-5.484,-0.919,-3.709,-0.28,0.364,-0.148
-5.747,-0.54,-4.188,-0.01,0.27,-0.076
-6.192,-0.392,-4.685,0.238,0.362,0.173
-6.858,-0.351,-5.085,0.459,0.172,0.543
-8.008,-0.134,-5.455,0.633,-0.068,0.794
-8.417,0.048,-5.494,0.68,0.116,0.875
-7.899,0.257,-5.457,0.685,-0.048,0.915
-8.113,0.429,-5.189,0.689,-0.277,0.857
-7.357,0.395,-4.824,0.636,-0.069,0.65
-5.915,-0.036,-4.374,0.584,-0.027,0.494
-5.315,-0.456,-4.125,0.585,-0.388,0.473
-5.355,-1.108,-4.008,0.539,-0.373,0.451
-5.183,-1.551,-4.118,0.451,-0.304,0.371
-5.966,-1.672,-4.383,0.376,-0.401,0.23
-7.043,-1.435,-4.706,0.32,-0.295,0.096
-8.175,-1.26,-5.041,0.318,-0.323,0.045
-9.202,-0.854,-5.111,0.299,-0.267,-0.085
-9.197,-0.724,-5.159,0.23,-0.124,-0.147
-9.268,-0.527,-4.988,0.158,-0.127,-0.113
-9.013,-0.445,-4.68,0.019,0.03,-0.048
-7.793,-0.485,-4.268,-0.152,0.224,-0.109
-6.585,-0.734,-3.996,-0.245,0.22,-0.106
-6.415,-0.68,-3.647,-0.228,0.256,-0.096
-5.831,-0.843,-3.485,-0.156,0.411,-0.106
-5.684,-1.113,-3.561,-0.007,0.221,-0.133
-6.432,-1.121,-3.634,0.147,0.159,-0.095
-7.062,-1.222,-3.958,0.26,0.075,0.031
-8.138,-1.123,-4.412,0.36,-0.164,0.192
-9.028,-0.743,-4.931,0.393,-0.176,0.159
-9.033,0.075,-5.328,0.408,-0.018,0.101
-8.391,0.598,-5.531,0.452,-0.014,0.109
-7.652,0.857,-5.364,0.532,0.04,0.121
-6.216,0.821,-4.9,0.619,0.162,0.096
-4.962,0.369,-4.347,0.753,0.101,0.293
-4.609,-0.58,-3.927,0.884,-0.08,0.569
-4.842,-1.567,-3.84,0.946,-0.125,0.75
-5.563,-2.38,-3.927,0.927,-0.133,0.819
-7.111,-2.698,-4.184,0.877,-0.119,0.826
-8.523,-3.064,-4.358,0.791,-0.047,0.741
-9.62,-3.003,-4.489,0.656,-0.068,0.569
-10.229,-2.777,-4.417,0.419,0.047,0.338
-10.378,-2.082,-4.207,0.141,0.104,0.114
-9.813,-1.613,-3.893,-0.189,0.267,-0.086
-8.565,-1.01,-3.59,-0.508,0.339,-0.278
-7.23,-0.797,-3.198,-0.755,0.398,-0.476
-6.431,-0.451,-2.923,-0.843,0.372,-0.621
-5.63,-0.387,-2.889,-0.809,0.415,-0.71
-5.163,-0.416,-3.025,-0.678,0.294,-0.734
-5.639,-0.227,-3.27,-0.505,0.114,-0.591
-6.466,-0.215,-3.798,-0.372,-0.033,-0.308
-7.578,-0.001,-4.614,-0.243,-0.282,0.073
-8.719,0.12,-5.316,-0.168,-0.314,0.182
-9.07,0.76,-5.798,-0.133,-0.222,0.205
-8.762,0.966,-5.892,-0.108,-0.237,0.172
-8.005,1.024,-5.556,-0.074,-0.197,0.076
-6.519,0.686,-4.772,-0.022,-0.094,-0.112
-5.261,0.274,-4.104,0.095,-0.223,-0.002
-4.798,-0.823,-3.615,0.211,-0.46,0.168
-5.108,-1.77,-3.569,0.245,-0.501,0.224
-6.218,-2.23,-3.653,0.226,-0.408,0.188
-7.85,-2.086,-3.924,0.173,-0.206,0.091
-8.888,-2.067,-4.116,0.098,-0.147,-0.048
-9.818,-1.731,-4.099,-0.009,-0.094,-0.248
-10.197,-1.378,-3.926,-0.134,-0.023,-0.318
-10.654,-0.915,-3.785,-0.273,-0.016,-0.368
-9.791,-0.856,-3.539,-0.497,0.156,-0.413
-8.651,-0.612,-3.202,-0.683,0.308,-0.536
-7.35,-0.647,-3.077,-0.798,0.486,-0.6
-6.416,-0.508,-3.146,-0.79,0.6,-0.683
-5.051,-0.674,-3.24,-0.674,0.71,-0.695
-4.868,-0.777,-3.431,-0.43,0.518,-0.567
-5.613,-0.734,-3.676,-0.211,0.376,-0.277
-6.509,-0.708,-4.122,-0.042,0.102,0.076
-7.721,-0.552,-4.57,0.069,-0.086,0.377
-8.722,-0.186,-5.104,0.078,-0.005,0.452
-8.928,0.415,-5.458,0.011,0.04,0.413
-8.573,0.505,-5.621,-0.052,-0.009,0.281
-7.597,0.477,-5.329,-0.079,0.138,0.108
-6.113,0.215,-4.902,-0.042,0.163,-0.063
-4.752,-0.325,-4.376,0.078,-0.132,0.005
-4.364,-1.354,-4.241,0.204,-0.454,0.134
-4.649,-2.028,-4.312,0.237,-0.428,0.207
-5.636,-2.3,-4.578,0.231,-0.435,0.208
-7.117,-2.233,-4.852,0.211,-0.388,0.157
-8.618,-2.118,-5.171,0.193,-0.39,0.071
-9.668,-1.796,-4.993,0.149,-0.206,-0.081
-10.157,-1.302,-4.743,0.099,-0.2,-0.158
-10.454,-0.954,-4.433,-0.026,-0.16,-0.234
-9.559,-0.849,-4.05,-0.242,-0.021,-0.314
-8.295,-0.673,-3.62,-0.465,0.133,-0.476
-7.067,-0.636,-3.465,-0.612,0.296,-0.565
-6.025,-0.771,-3.354,-0.624,0.5,-0.63
-5.045,-1.044,-3.372,-0.501,0.603,-0.619
-5.05,-1.365,-3.475,-0.291,0.51,-0.485
-5.597,-1.72,-3.681,-0.105,0.37,-0.188
-6.652,-1.854,-3.98,0.027,0.035,0.134
-7.995,-1.544,-4.356,0.083,-0.248,0.359
-8.959,-0.906,-4.648,0.023,-0.193,0.39
-9.072,-0.057,-4.728,-0.045,-0.203,0.384
-8.781,0.332,-4.705,-0.078,-0.23,0.315
-7.646,0.445,-4.412,-0.078,-0.088,0.21
-6.17,0.096,-4.087,-0.044,-0.055,0.155
-5.148,-0.537,-3.799,0.07,-0.34,0.265
-5.06,-1.441,-3.789,0.14,-0.475,0.35
-5.447,-1.824,-3.799,0.164,-0.439,0.344
-6.432,-2.164,-3.932,0.17,-0.38,0.253
-7.801,-2.0,-4.087,0.199,-0.287,0.103
-9.03,-2.124,-4.302,0.227,-0.295,-0.018
-10.211,-1.885,-4.214,0.232,-0.169,-0.222
-10.466,-1.7,-4.086,0.18,-0.069,-0.353
-10.596,-1.376,-3.932,0.028,-0.074,-0.419
-9.795,-1.375,-3.646,-0.274,0.134,-0.433
-8.355,-1.079,-3.192,-0.605,0.442,-0.515
-6.64,-1.098,-2.932,-0.854,0.546,-0.49
-5.889,-1.037,-2.747,-0.954,0.573,-0.418
-5.109,-1.065,-2.672,-0.914,0.674,-0.364
-5.224,-1.015,-2.707,-0.705,0.483,-0.273
-5.931,-0.937,-3.006,-0.453,0.197,-0.064
-7.367,-0.769,-3.539,-0.225,-0.266,0.166
-8.748,-0.378,-4.197,-0.135,-0.395,0.249
-9.375,0.347,-4.892,-0.148,-0.373,0.221
-9.399,1.237,-5.268,-0.175,-0.306,0.196
-8.755,1.589,-5.352,-0.162,-0.206,0.14
-7.253,1.567,-5.075,-0.083,0.016,0.044
-5.624,1.095,-4.588,0.1,0.01,0.053
-4.927,0.266,-4.034,0.369,-0.18,0.199
-4.823,-0.953,-3.856,0.565,-0.33,0.278
-5.639,-1.756,-3.85,0.647,-0.395,0.239
-7.006,-1.893,-3.95,0.613,-0.271,0.146
-8.257,-2.009,-4.198,0.502,-0.205,0.047
-9.55,-1.672,-4.23,0.344,-0.128,-0.054
-10.033,-1.392,-4.125,0.128,-0.036,-0.119
-10.312,-0.908,-3.851,-0.089,-0.049,-0.132
-9.762,-0.641,-3.577,-0.328,0.07,-0.127
-8.464,-0.17,-3.19,-0.525,0.169,-0.165
-6.991,0.099,-2.948,-0.611,0.174,-0.192
-6.052,0.589,-2.62,-0.527,0.269,-0.14
-4.98,1.095,-2.366,-0.287,0.263,-0.009
-4.54,1.662,-2.34,0.081,-0.04,0.243
-5.7,3.103,-2.46,0.51,-0.445,0.628
-7.393,4.314,-2.612,0.891,-0.767,0.915
-9.713,5.113,-2.347,1.457,-0.902,0.991
-10.945,6.327,-1.794,2.194,-0.657,0.622
-10.689,7.465,0.612,3.097,-0.279,0.154
-10.017,6.492,3.666,4.176,0.636,-0.006
-7.637,5.038,10.533,5.006,2.028,0.663
-5.156,-2.752,12.449,5.06,1.404,1.306
-5.987,-7.56,12.245,4.247,0.338,2.182
-12.905,-12.121,9.842,3.36,-0.879,2.598
-17.785,-14.225,7.267,1.763,-1.097,2.182
-21.287,-16.241,1.902,0.253,-2.266,0.964
-22.56,-10.48,1.656,-0.968,-1.421,-0.054
-21.12,-9.032,3.312,-1.841,-0.641,-1.057
-13.895,-6.872,4.593,-3.364,0.386,-1.615
-8.326,-3.977,5.422,-4.311,0.201,-1.822
-5.339,-2.123,5.507,-4.665,0.531,-1.612
-4.421,-1.136,4.121,-4.6,0.08,-1.52
-4.058,0.351,2.756,-4.259,0.225,-1.374
-4.296,0.74,1.87,-3.339,0.201,-1.185
-4.601,-0.892,1.002,-2.404,-0.198,-0.936
-5.137,-1.056,-0.275,-1.901,-0.701,-1.051
-5.335,-1.495,-1.094,-1.558,-0.662,-1.053
-6.098,-1.555,-2.089,-1.186,-0.966,-0.918
-8.174,-1.796,-2.72,-0.845,-1.187,-0.749
-9.742,-1.801,-3.039,-0.608,-0.949,-0.5
-10.901,-1.943,-3.266,-0.371,-0.681,-0.223
-11.124,-1.874,-3.238,-0.207,-0.387,0.064
-10.31,-1.904,-3.116,-0.092,-0.116,0.281
-8.495,-1.725,-3.007,0.004,0.179,0.436
-6.717,-1.878,-2.98,0.145,0.271,0.526
-5.31,-2.053,-2.892,0.281,0.313,0.55
-5.669,-2.513,-2.724,0.475,0.274,0.576
-6.482,-2.826,-2.885,0.616,0.255,0.605
-7.766,-3.244,-2.888,0.716,0.129,0.633
-9.488,-3.067,-2.995,0.736,-0.097,0.631
-11.029,-2.291,-3.072,0.653,0.11,0.531
-10.172,-1.449,-2.928,0.494,0.249,0.482
-9.314,-1.104,-2.552,0.442,0.041,0.39
-7.723,-0.925,-2.17,0.382,0.033,0.298
-5.81,-1.273,-1.938,0.343,-0.005,0.241
-4.341,-2.041,-1.853,0.346,-0.532,0.315
-5.266,-2.563,-2.165,0.333,-0.956,0.245
-6.658,-2.756,-2.531,0.155,-0.673,0.117
-8.01,-2.462,-2.755,-0.017,-0.486,-0.073
-9.999,-2.52,-3.032,-0.145,-0.47,-0.17
-11.713,-1.872,-2.667,-0.245,-0.014,-0.285
-11.525,-1.595,-2.243,-0.317,0.434,-0.317
-11.059,-1.103,-1.81,-0.259,0.293,-0.249
-10.953,-0.831,-1.705,-0.221,0.213,-0.174
-9.939,0.041,-1.277,-0.17,0.408,-0.286
-8.07,0.292,-1.334,0.044,0.665,-0.325
-6.707,0.671,-1.163,0.429,0.82,-0.284
-5.834,1.275,-0.944,0.957,0.888,-0.151
-5.25,1.597,-0.682,1.546,0.835,0.143
-7.573,1.647,-0.922,2.158,0.428,0.762
-9.596,1.391,-1.241,2.486,-0.073,1.201
-11.239,0.747,-1.668,2.685,-0.462,1.461
-11.685,-0.107,-1.859,2.792,-0.339,1.486
-11.422,-0.837,-2.034,2.884,-0.004,1.326
-8.48,-1.376,-1.696,2.884,0.554,0.904
-6.844,-1.81,-1.384,2.98,0.701,0.677
-6.628,-1.461,-1.188,3.002,0.66,0.484
-6.738,-1.588,-1.338,2.848,0.574,0.404
-7.046,-1.644,-1.438,2.604,0.295,0.404
-8.435,-1.85,-1.635,2.391,0.093,0.505
-10.232,-0.909,-1.445,2.26,0.275,0.354
-9.872,-0.975,-1.255,2.139,0.813,0.337
-10.067,-0.62,-1.004,2.22,0.689,0.4
-10.557,-0.49,-0.716,2.334,0.768,0.484
-9.809,-0.282,-0.542,2.442,0.844,0.51
-8.054,-1.295,-0.546,2.518,0.647,0.716
-8.049,-1.773,-0.526,2.643,0.193,0.791
-7.748,-2.336,-0.343,2.662,0.424,0.793
-7.247,-2.587,-0.178,2.707,0.344,0.783
-7.336,-2.993,-0.014,2.713,0.188,0.744
-7.587,-3.075,-0.044,2.65,0.128,0.65
-7.904,-3.101,0.01,2.577,0.087,0.622
-8.96,-2.683,-0.054,2.513,-0.18,0.574
-9.693,-2.282,-0.384,2.342,0.05,0.403
-9.582,-1.622,-0.806,2.2,0.252,0.304
-9.453,-1.366,-1.104,2.153,0.252,0.358
-9.264,-1.162,-1.491,2.093,0.293,0.368
-8.215,-1.42,-1.769,2.003,0.54,0.355
-7.442,-1.812,-1.779,1.993,0.361,0.447
-7.472,-2.371,-1.708,1.933,0.236,0.476
-7.484,-2.768,-1.805,1.748,0.217,0.39
-7.498,-3.089,-1.88,1.479,0.225,0.255
-7.745,-3.329,-2.003,1.173,0.171,0.163
-8.536,-3.603,-2.006,0.86,0.062,0.136
-9.841,-3.217,-1.901,0.545,0.053,0.004
-10.129,-2.978,-1.881,0.231,0.337,-0.163
-9.698,-2.648,-1.706,0.016,0.38,-0.265
-9.716,-2.229,-1.45,-0.136,0.349,-0.293
-9.585,-1.39,-1.287,-0.221,0.49,-0.41
-8.063,-1.228,-1.145,-0.25,0.718,-0.43
-7.155,-0.815,-0.969,-0.161,0.446,-0.357
-7.149,-0.593,-1.006,-0.023,0.328,-0.202
-6.716,-0.726,-1.306,0.149,0.226,-0.02
-6.22,-1.258,-1.692,0.292,0.068,0.196
-6.677,-1.784,-2.121,0.427,-0.186,0.404
-7.641,-2.198,-2.321,0.533,-0.158,0.563
-8.404,-2.501,-2.387,0.618,-0.133,0.629
-9.634,-2.341,-2.304,0.716,-0.124,0.63
-10.35,-1.979,-2.242,0.79,-0.082,0.537
-10.271,-1.326,-2.281,0.839,0.094,0.371
-9.894,-0.599,-2.402,0.925,0.225,0.234
-9.454,0.306,-2.475,1.061,0.354,0.183
-8.115,0.574,-2.453,1.182,0.439,0.171
-6.977,0.447,-2.357,1.317,0.347,0.264
-6.603,-0.053,-2.086,1.464,0.147,0.446
-6.491,-0.889,-1.859,1.528,-0.071,0.625
-6.501,-2.001,-1.799,1.457,-0.267,0.664
-6.921,-2.884,-1.873,1.261,-0.308,0.592
-7.787,-3.205,-1.938,0.976,-0.187,0.437
-8.593,-3.246,-1.973,0.681,-0.067,0.216
-9.974,-3.178,-1.988,0.436,-0.09,0.046
-10.624,-2.741,-1.889,0.165,0.162,-0.174
-10.119,-2.465,-1.785,-0.117,0.215,-0.359
-10.153,-2.198,-1.55,-0.413,0.074,-0.411
-9.985,-1.799,-1.236,-0.793,0.235,-0.411
-8.556,-1.321,-1.037,-1.217,0.459,-0.553
-7.691,-0.959,-1.013,-1.509,0.341,-0.61
-7.75,-0.272,-1.074,-1.597,0.423,-0.601
-6.92,0.321,-1.473,-1.455,0.607,-0.57
-6.164,0.604,-2.111,-1.078,0.364,-0.448
-6.303,0.796,-2.653,-0.556,0.143,-0.149
-6.648,0.612,-2.921,-0.004,-0.115,0.264
-8.213,0.398,-2.993,0.513,-0.61,0.696
-9.965,0.027,-3.072,0.817,-0.648,0.855
-10.604,0.053,-3.103,0.942,-0.339,0.743
-10.473,0.502,-3.06,1.09,-0.066,0.563
-10.085,1.215,-2.955,1.319,0.187,0.4
-8.363,1.577,-2.898,1.547,0.549,0.221
-6.521,1.659,-2.559,1.854,0.425,0.259
-6.079,1.095,-2.115,2.14,0.01,0.506
-6.326,0.042,-1.751,2.185,-0.258,0.69
-6.765,-1.024,-1.594,1.983,-0.281,0.666
-7.64,-1.451,-1.514,1.7,-0.177,0.479
-8.358,-1.342,-1.546,1.496,0.046,0.261
-8.451,-0.958,-1.672,1.453,0.143,0.077
-8.818,-0.532,-1.703,1.621,0.064,-0.01
-9.659,-0.053,-1.661,1.929,-0.029,0.049
-9.856,0.053,-1.626,2.195,-0.143,0.215
-9.803,-0.135,-1.798,2.303,-0.221,0.383
-9.749,-0.304,-1.85,2.35,-0.03,0.525
-9.322,-0.43,-1.924,2.423,0.242,0.638
-8.852,-0.843,-1.989,2.58,0.446,0.698
-8.859,-1.458,-1.818,2.847,0.63,0.594
-9.013,-2.197,-1.408,3.163,0.829,0.399
-9.231,-2.895,-0.735,3.379,0.894,0.122
-9.267,-3.71,-0.146,3.348,0.945,-0.24
-8.675,-4.316,0.422,3.074,1.077,-0.621
-7.602,-4.708,0.777,2.627,1.139,-0.789
-6.691,-5.215,1.028,2.058,0.958,-0.762
-6.136,-5.599,0.351,1.372,0.601,-0.594
-5.908,-5.874,-0.564,0.667,0.478,-0.273
-6.198,-5.915,-1.695,0.103,0.462,0.136
-6.735,-5.676,-2.643,-0.226,0.601,0.441
-7.025,-4.948,-3.688,-0.284,0.747,0.529
-6.708,-4.507,-3.774,-0.099,0.907,0.505
-6.459,-4.085,-3.573,0.173,0.797,0.393
-5.787,-3.958,-2.939,0.328,0.669,0.266
-5.067,-4.371,-2.658,0.285,0.33,0.217
-5.218,-5.016,-2.215,0.148,0.045,0.233
-6.136,-4.991,-2.133,-0.166,-0.01,0.227
-6.513,-5.221,-2.357,-0.486,-0.135,0.223
-7.466,-5.043,-2.877,-0.77,-0.463,0.229
-8.213,-4.625,-3.743,-0.94,-0.413,0.092
-7.743,-4.295,-4.252,-1.132,-0.368,0.001
-7.728,-4.286,-4.674,-1.271,-0.609,-0.028
-8.662,-3.485,-4.588,-1.409,-0.341,-0.142
-7.999,-2.808,-4.382,-1.513,0.195,-0.372
-7.035,-2.104,-3.607,-1.544,0.12,-0.489
-7.195,-1.244,-3.449,-1.457,-0.091,-0.506
-6.618,-0.708,-3.605,-1.241,0.144,-0.464
-5.402,-0.803,-4.077,-0.901,-0.004,-0.355
-5.664,-1.052,-4.536,-0.466,-0.345,-0.169
-6.565,-1.235,-4.898,-0.09,-0.268,0.048
-6.973,-1.553,-4.843,0.208,-0.205,0.18
-8.003,-1.546,-4.537,0.482,-0.409,0.294
-9.06,-1.283,-4.229,0.65,-0.424,0.369
-9.209,-0.716,-4.018,0.714,-0.288,0.358
-8.739,-0.223,-3.786,0.788,-0.274,0.376
-8.638,0.377,-3.573,0.916,-0.233,0.462
-8.014,0.525,-3.356,1.017,-0.014,0.503
-6.824,0.329,-3.01,1.139,0.028,0.557
-6.304,-0.328,-2.706,1.278,-0.28,0.684
-6.817,-0.881,-2.618,1.327,-0.433,0.737
-6.679,-1.607,-2.746,1.241,-0.338,0.701
-6.751,-2.245,-2.983,1.08,-0.485,0.605
-7.668,-2.471,-3.138,0.859,-0.435,0.475
-8.703,-2.081,-3.229,0.673,-0.103,0.22
-8.694,-1.883,-3.207,0.571,0.083,0.008
-9.488,-0.957,-2.923,0.635,0.013,-0.153
-10.123,-0.226,-2.427,0.804,0.091,-0.109
-10.403,0.001,-1.686,1.032,-0.1,0.107
-10.166,0.352,-0.922,1.137,-0.035,0.328
-9.143,0.777,-0.275,1.156,0.118,0.402
-7.31,0.185,0.251,1.114,0.156,0.419
-7.26,-0.323,0.808,1.129,-0.362,0.492
-8.341,-0.269,1.249,1.155,-0.087,0.295
-7.843,-1.531,1.154,1.188,-0.07,0.237
-8.676,-2.706,0.98,1.151,-0.575,0.233
-10.071,-3.192,0.73,0.956,-0.374,0.223
-9.308,-3.101,0.453,0.675,0.432,-0.004
-7.698,-3.178,-0.07,0.445,0.42,-0.068
-8.107,-2.459,-0.208,0.318,0.262,-0.178
-8.997,-1.869,-0.234,0.32,0.383,-0.117
-9.806,-1.337,-0.388,0.346,0.12,-0.099
-10.396,-1.001,-0.943,0.245,0.016,-0.143
-10.082,-0.755,-1.555,0.082,0.0,-0.193
-9.106,-0.691,-2.026,-0.069,-0.011,-0.163
-7.812,-0.568,-2.424,-0.202,0.099,-0.224
-6.626,-0.703,-2.606,-0.25,0.174,-0.159
-6.346,-1.047,-2.487,-0.219,-0.053,0.001
-6.65,-1.379,-2.351,-0.264,-0.101,0.098
-6.772,-1.699,-2.317,-0.408,-0.133,0.115
-6.926,-1.939,-2.27,-0.602,-0.238,0.127
-7.141,-2.173,-2.294,-0.823,-0.34,0.101
-7.403,-2.208,-2.4,-1.014,-0.354,-0.0
-7.966,-2.354,-2.4,-1.137,-0.407,-0.115
-10.326,-2.013,-2.343,-1.184,-0.46,-0.222
-11.961,-1.544,-2.034,-1.243,0.062,-0.413
-12.023,-1.055,-1.75,-1.199,0.417,-0.589
-12.037,-0.687,-1.298,-1.064,0.437,-0.707
-11.619,0.07,-0.874,-0.869,0.669,-0.771
-9.097,0.321,-0.403,-0.627,0.911,-0.867
-6.887,0.43,-0.241,-0.248,0.607,-0.798
-6.137,0.334,-0.045,0.149,0.346,-0.605
-5.266,0.195,-0.12,0.488,0.352,-0.238
-4.224,-0.568,-0.484,0.751,0.131,0.286
-3.875,-1.221,-1.255,0.878,-0.115,1.066
-4.161,-1.44,-1.999,0.846,-0.236,2.001
-4.83,-0.538,-2.788,0.67,0.012,2.946
-5.322,1.089,-3.54,0.371,0.544,3.731
-5.156,4.702,-4.15,0.076,0.804,4.585
-5.212,8.972,-4.335,-0.068,0.602,5.16
-4.803,11.874,-4.059,0.023,0.149,4.936
-3.584,13.54,-3.358,0.202,-0.493,4.212
-2.361,13.949,-2.593,0.506,-1.72,3.272
-2.404,11.928,-1.689,0.834,-2.571,2.145
-2.034,9.058,-0.764,1.017,-2.784,1.152
-2.043,7.358,-0.372,0.943,-2.757,0.776
-2.474,6.177,-0.518,0.741,-2.64,0.761
-2.917,5.495,-0.975,0.44,-1.948,0.927
-2.945,5.583,-1.693,0.134,-1.298,1.039
-3.38,6.395,-2.596,-0.09,-0.86,1.082
-3.646,7.252,-3.422,-0.219,-0.499,0.991
-3.895,8.577,-4.143,-0.285,-0.258,0.819
-4.061,9.119,-4.428,-0.295,-0.116,0.463
-4.273,9.814,-4.515,-0.31,0.148,0.036
-4.409,10.349,-4.331,-0.246,0.66,-0.457
-3.889,10.348,-3.859,-0.124,1.235,-0.98
-2.975,9.431,-3.225,0.058,1.501,-1.543
-2.239,9.355,-2.657,0.239,1.529,-1.914
-1.496,9.02,-1.993,0.408,1.357,-2.103
-0.748,8.125,-1.587,0.458,0.959,-2.126
-0.54,7.433,-1.564,0.396,0.572,-1.918
-0.47,7.111,-1.749,0.254,0.445,-1.496
-0.121,6.941,-2.063,0.065,0.37,-0.934
-0.011,7.025,-2.583,-0.161,0.235,-0.31
-0.137,8.583,-2.978,-0.401,0.227,0.44
-0.115,9.023,-3.453,-0.663,0.006,1.086
-0.644,9.47,-3.814,-0.782,-0.205,1.549
-0.912,10.025,-3.724,-0.761,-0.193,1.836
-0.915,10.263,-3.526,-0.645,-0.622,1.981
-1.599,8.852,-3.348,-0.443,-1.286,1.852
-2.495,8.425,-2.93,-0.19,-1.375,1.672
-2.968,8.035,-2.661,-0.072,-1.252,1.484
-3.654,7.366,-2.846,-0.059,-1.196,1.23
-4.447,6.787,-3.004,-0.06,-0.712,0.841
-4.437,6.851,-3.209,-0.09,0.035,0.415
-4.244,7.601,-3.376,-0.077,0.407,-0.058
-4.108,9.038,-3.371,-0.049,0.562,-0.524
-4.069,10.291,-3.147,-0.048,0.644,-0.983
-3.916,10.671,-2.7,-0.12,0.958,-1.447
-3.772,11.344,-2.059,-0.182,1.396,-1.776
-3.596,11.588,-1.41,-0.194,1.939,-1.935
-2.814,10.777,-0.732,-0.132,2.247,-2.05
-2.115,9.959,-0.204,-0.024,2.144,-2.149
-1.872,9.924,-0.039,0.085,1.827,-2.119
-1.382,8.846,-0.255,0.132,1.413,-2.085
-1.049,7.741,-0.645,0.092,0.901,-1.996
-1.114,7.012,-1.101,-0.015,0.663,-1.737
-1.004,6.954,-1.624,-0.153,0.725,-1.271
-0.582,7.813,-2.008,-0.298,0.689,-0.648
-0.356,8.621,-2.344,-0.545,0.489,0.021
-0.288,8.502,-2.669,-0.794,0.371,0.466
-0.11,9.543,-2.726,-0.964,0.471,0.845
0.397,9.879,-2.778,-1.092,0.208,1.181
0.046,9.212,-2.919,-1.117,-0.563,1.405
-0.937,8.867,-2.898,-0.976,-0.853,1.627
-1.543,9.513,-2.965,-0.812,-0.946,1.921
-2.339,8.773,-3.375,-0.667,-1.302,2.025
-3.669,8.214,-3.747,-0.489,-1.242,1.889
-4.119,7.929,-3.984,-0.29,-0.531,1.514
-3.738,8.281,-4.075,-0.074,-0.242,0.897
-3.686,9.023,-4.084,0.135,-0.249,0.166
-3.593,10.022,-4.052,0.331,-0.115,-0.545
-3.09,10.639,-3.617,0.469,0.074,-1.202
-2.8,11.008,-3.157,0.498,0.365,-1.681
-2.791,11.34,-2.827,0.479,0.931,-1.866
-2.19,10.957,-2.263,0.502,1.457,-1.892
-1.378,10.001,-1.644,0.523,1.544,-1.891
-1.091,9.286,-1.409,0.547,1.39,-1.846
-0.608,8.747,-1.278,0.578,1.183,-1.726
0.157,7.656,-1.133,0.583,0.643,-1.662
0.379,6.615,-1.216,0.471,0.097,-1.517
0.218,6.436,-1.384,0.249,-0.141,-1.147
0.136,6.759,-1.581,-0.049,-0.24,-0.545
-0.204,7.812,-1.864,-0.386,-0.424,0.274
-0.733,8.421,-2.496,-0.697,-0.666,1.037
-1.201,9.781,-3.038,-0.831,-0.761,1.591
-1.08,10.821,-3.103,-0.831,-0.928,1.871
-1.141,10.874,-3.076,-0.708,-1.548,1.916
-1.541,9.843,-2.856,-0.436,-2.216,1.71
-2.022,9.214,-2.209,-0.12,-2.421,1.513
-2.471,8.289,-1.703,0.071,-2.485,1.478
-3.469,7.404,-1.775,0.163,-2.39,1.564
-4.221,7.131,-2.067,0.194,-1.696,1.614
-4.401,7.479,-2.417,0.184,-0.873,1.497
-4.133,8.284,-2.717,0.153,-0.409,1.163
-4.002,9.493,-3.031,0.121,-0.429,0.631
-4.111,9.936,-3.156,0.114,-0.547,-0.086
-4.149,10.474,-3.051,0.03,-0.317,-0.846
-4.036,11.146,-2.903,-0.086,0.214,-1.532
-3.901,11.413,-2.829,-0.12,0.891,-2.024
-3.273,10.628,-2.614,-0.025,1.555,-2.382
-2.335,10.171,-2.368,0.134,1.944,-2.576
-1.63,9.639,-2.084,0.386,1.823,-2.586
-0.924,8.49,-1.782,0.603,1.315,-2.463
-0.413,7.234,-1.514,0.642,0.594,-2.23
-0.525,6.489,-1.371,0.494,0.094,-1.813
-0.546,6.091,-1.272,0.224,-0.036,-1.186
-0.582,6.741,-1.333,-0.107,-0.121,-0.247
-0.904,7.377,-1.876,-0.439,-0.313,0.834
-1.415,8.446,-2.567,-0.628,-0.376,1.738
-1.437,10.098,-2.792,-0.686,-0.381,2.383
-1.375,11.063,-3.096,-0.663,-0.814,2.664
-1.664,10.542,-3.145,-0.51,-1.526,2.516
-2.123,9.989,-2.634,-0.26,-1.929,2.185
-2.716,9.323,-2.136,-0.047,-2.072,1.95
-3.469,8.081,-2.154,0.102,-2.036,1.781
-4.258,7.331,-2.197,0.237,-1.693,1.665
-4.575,7.318,-2.333,0.302,-1.054,1.502
-4.566,7.974,-2.495,0.314,-0.562,1.18
-4.322,8.92,-2.551,0.225,-0.406,0.65
-4.401,9.731,-2.566,0.119,-0.427,-0.008
-4.547,10.178,-2.374,-0.051,-0.076,-0.713
-4.438,10.939,-2.197,-0.231,0.639,-1.396
-4.003,11.628,-2.07,-0.322,1.435,-1.974
-3.142,11.433,-1.829,-0.246,2.009,-2.436
-2.08,10.896,-1.517,-0.115,2.197,-2.81
-1.353,10.722,-1.369,0.058,1.968,-2.995
-0.602,9.72,-1.291,0.235,1.492,-2.942
0.05,8.057,-1.339,0.305,0.783,-2.682
0.054,6.922,-1.491,0.24,0.231,-2.185
0.026,6.371,-1.563,0.088,0.103,-1.411
0.074,6.285,-1.658,-0.119,-0.022,-0.416
-0.515,7.657,-1.791,-0.367,-0.147,0.786
-1.112,8.526,-2.233,-0.585,-0.175,1.773
-1.316,10.312,-2.413,-0.652,-0.132,2.428
-1.091,11.537,-2.319,-0.622,-0.489,2.679
-1.185,11.798,-2.101,-0.507,-1.317,2.586
-1.58,10.499,-1.748,-0.248,-2.256,2.147
-2.397,9.874,-1.084,0.049,-2.57,1.829
-3.121,8.464,-0.829,0.205,-2.552,1.711
-4.252,7.537,-1.1,0.29,-2.227,1.731
-4.907,7.393,-1.457,0.339,-1.391,1.669
-4.9,7.901,-1.919,0.291,-0.464,1.414
-4.45,8.876,-2.326,0.159,-0.133,0.897
-4.326,10.177,-2.684,0.066,-0.165,0.164
-4.152,10.61,-2.653,-0.034,-0.113,-0.713
-4.0,10.751,-2.449,-0.167,0.291,-1.503
-3.734,11.155,-2.193,-0.265,0.966,-2.055
-3.127,11.186,-1.749,-0.235,1.65,-2.354
-2.258,10.327,-1.237,-0.156,1.974,-2.503
-1.717,9.897,-0.899,-0.046,2.041,-2.503
-1.137,9.517,-0.628,0.084,1.849,-2.352
-0.577,8.44,-0.486,0.155,1.265,-2.156
-0.472,7.256,-0.557,0.106,0.68,-1.931
-0.593,6.835,-0.68,-0.032,0.417,-1.537
-0.547,7.088,-0.762,-0.236,0.205,-0.94
-0.927,8.105,-1.32,-0.437,-0.01,-0.075
-1.184,8.376,-2.255,-0.638,-0.105,0.837
-1.37,9.412,-3.019,-0.69,-0.249,1.548
-1.164,10.767,-3.018,-0.633,-0.419,2.07
-1.001,10.811,-3.135,-0.439,-1.086,2.318
-1.309,9.703,-2.728,-0.147,-1.933,2.136
-1.917,9.4,-1.808,0.169,-2.448,1.829
-2.678,8.673,-1.104,0.348,-2.563,1.654
-3.814,7.299,-1.259,0.414,-2.348,1.529
-4.711,6.822,-1.497,0.387,-1.432,1.427
-4.646,7.399,-1.87,0.316,-0.401,1.306
-4.152,8.176,-2.143,0.243,0.091,0.984
-3.833,9.503,-2.52,0.136,0.058,0.497
-3.813,10.066,-2.62,0.032,-0.186,-0.211
-3.968,10.592,-2.379,-0.133,-0.058,-0.929
-4.068,11.222,-2.142,-0.305,0.541,-1.53
-3.917,11.346,-1.831,-0.36,1.343,-1.986
-3.15,10.543,-1.29,-0.289,2.039,-2.335
-2.195,10.254,-0.883,-0.146,2.352,-2.546
-1.413,10.013,-0.654,0.059,2.11,-2.653
-0.828,8.964,-0.525,0.221,1.446,-2.684
-0.719,7.941,-0.644,0.235,0.732,-2.571
-1.035,7.172,-0.873,0.111,0.288,-2.244
-1.299,6.627,-1.168,-0.115,0.15,-1.661
-1.565,6.698,-1.558,-0.391,0.152,-0.759
-1.708,6.988,-2.103,-0.662,0.141,0.329
-1.83,7.492,-2.696,-0.78,0.061,1.244
-1.647,8.989,-2.899,-0.784,0.087,2.034
-1.212,10.259,-2.958,-0.694,-0.322,2.505
-1.245,10.397,-2.968,-0.49,-1.209,2.535
-1.933,9.994,-2.588,-0.208,-1.809,2.267
-2.512,9.799,-2.004,-0.041,-1.866,2.076
-3.224,8.669,-1.87,0.062,-1.891,1.828
-4.1,7.681,-1.955,0.123,-1.529,1.613
-4.382,7.254,-2.015,0.137,-0.77,1.36
-4.107,7.787,-2.156,0.106,-0.18,1.013
-3.586,8.32,-2.369,0.057,-0.105,0.486
-3.502,9.418,-2.718,0.013,-0.303,-0.104
-3.749,10.074,-2.725,-0.032,-0.378,-0.79
-3.831,10.529,-2.507,-0.155,0.056,-1.412
-3.695,10.964,-2.302,-0.268,0.657,-1.843
-3.73,11.161,-2.177,-0.269,1.172,-2.102
-3.441,10.439,-1.717,-0.212,1.555,-2.385
-3.103,10.079,-1.381,-0.15,1.779,-2.61
-3.108,9.782,-1.439,0.014,1.482,-2.803
-3.331,8.548,-1.637,0.167,0.847,-3.028
-4.072,7.213,-1.802,0.23,0.297,-3.224
-5.096,6.092,-2.225,0.255,0.052,-3.248
-5.799,4.893,-2.622,0.306,-0.085,-3.102
-6.65,3.667,-2.896,0.376,-0.366,-2.802
-7.422,2.151,-3.049,0.384,-0.483,-2.506
-8.086,1.291,-2.98,0.326,-0.375,-2.308
-7.956,0.483,-2.888,0.285,-0.22,-2.104
-7.832,-0.544,-2.933,0.26,-0.3,-1.943
-7.018,-1.834,-2.87,0.16,-0.057,-1.806
-6.112,-2.339,-2.781,0.12,0.202,-1.684
-4.666,-3.302,-2.815,0.162,0.325,-1.41
-3.809,-4.291,-2.648,0.194,0.196,-1.143
-3.589,-5.17,-2.654,0.158,0.108,-0.954
-3.824,-5.633,-2.498,0.135,0.063,-0.857
-4.0,-6.246,-2.461,0.15,-0.082,-0.741
-4.566,-7.155,-2.497,0.169,-0.459,-0.682
-5.631,-8.12,-2.611,0.121,-0.852,-0.604
-6.164,-8.841,-2.562,0.083,-0.692,-0.563
-5.959,-9.672,-2.311,0.024,-0.631,-0.524
-6.09,-10.055,-1.665,-0.093,-0.857,-0.529
-6.28,-9.56,-1.208,-0.248,-0.719,-0.577
-5.45,-8.616,-0.917,-0.344,-0.267,-0.723
-4.514,-7.523,-0.399,-0.361,-0.293,-0.756
-4.186,-6.436,-0.344,-0.311,-0.422,-0.715
-3.769,-5.941,-0.778,-0.213,-0.194,-0.582
-3.282,-6.251,-1.025,-0.087,-0.08,-0.391
-3.226,-7.08,-1.103,0.052,-0.128,-0.155
-3.813,-8.388,-1.307,0.133,-0.162,0.095
-4.676,-9.639,-1.422,0.255,-0.051,0.335
-5.996,-10.292,-1.409,0.275,0.167,0.193
-6.439,-10.061,-1.138,0.265,0.678,-0.019
-6.43,-9.558,-1.152,0.244,0.741,-0.239
-5.732,-8.791,-1.267,0.211,0.857,-0.395
-4.475,-7.771,-1.21,0.11,1.022,-0.565
-2.396,-7.022,-0.91,0.096,1.032,-0.394
-1.049,-6.864,-0.861,0.134,0.489,-0.106
-0.628,-7.111,-0.643,0.153,0.155,0.159
-0.749,-7.248,-0.441,0.186,-0.05,0.296
-1.521,-8.165,-0.393,0.21,-0.391,0.378
-2.919,-9.103,-0.907,0.181,-0.676,0.302
-4.362,-10.972,-0.96,0.192,-0.716,0.215
-5.455,-11.616,-1.14,-0.001,-0.559,-0.069
-5.371,-11.82,-0.791,-0.149,-0.261,-0.312
-5.095,-11.14,-0.08,-0.322,-0.402,-0.421
-5.011,-10.133,0.669,-0.422,-0.578,-0.404
-4.342,-8.081,0.608,-0.593,-0.434,-0.41
-3.239,-6.855,0.854,-0.538,-0.432,-0.205
-3.272,-6.061,0.646,-0.461,-0.818,0.076
-3.409,-5.993,-0.09,-0.281,-0.65,0.283
-3.023,-6.697,-0.51,-0.096,-0.385,0.475
-3.617,-7.925,-0.708,0.005,-0.538,0.587
-4.884,-9.187,-1.05,0.036,-0.405,0.612
-6.148,-10.518,-1.127,0.015,-0.012,0.534
-7.147,-10.926,-1.265,-0.091,0.265,0.294
-7.683,-10.144,-1.106,-0.213,0.726,-0.089
-7.148,-8.626,-0.849,-0.178,1.01,-0.314
-6.341,-7.425,-0.794,-0.048,0.912,-0.369
-5.098,-6.216,-0.978,0.056,0.87,-0.305
-3.613,-5.735,-0.915,0.181,0.919,-0.105
-2.401,-5.997,-1.05,0.262,0.574,0.306
-1.974,-6.433,-1.163,0.247,0.253,0.699
-1.808,-6.429,-0.963,0.189,0.213,1.073
-1.82,-6.381,-0.729,0.089,0.066,1.432
-2.527,-5.817,-0.491,-0.032,-0.303,1.924
-3.978,-4.826,-0.38,-0.114,-0.498,2.426
-6.264,-3.621,-0.265,-0.178,-0.609,2.989
-8.976,-1.872,-0.291,-0.298,-0.473,3.154
-10.816,-0.657,-0.456,-0.472,-0.377,3.155
-13.053,0.703,-0.708,-0.575,-0.537,2.75
-14.196,1.194,-1.135,-0.659,-0.187,2.039
-13.113,1.287,-1.536,-0.616,0.268,0.967
-10.982,0.699,-1.61,-0.422,0.27,0.184
-9.886,0.819,-1.478,-0.073,0.207,-0.462
-7.761,0.472,-1.246,0.223,0.614,-0.793
-6.219,0.534,-0.712,0.453,0.329,-0.793
-6.348,0.86,-0.184,0.526,0.01,-0.47
-6.912,1.062,0.098,0.439,-0.191,-0.04
-8.19,1.551,0.23,0.309,-0.429,0.425
-9.56,1.923,-0.004,0.171,-0.502,0.63
-10.096,2.154,-0.447,0.097,-0.364,0.552
-10.181,2.441,-0.716,0.198,-0.227,0.311
-10.17,2.745,-0.858,0.489,-0.124,0.015
-8.892,2.272,-1.037,0.809,0.055,-0.331
-7.415,1.636,-0.853,1.135,-0.072,-0.439
-6.946,0.991,-0.511,1.372,-0.357,-0.291
-6.802,0.007,-0.405,1.367,-0.502,-0.055
-6.725,-0.858,-0.437,1.14,-0.503,0.133
-7.286,-1.333,-0.311,0.804,-0.446,0.254
-8.499,-1.08,-0.214,0.474,-0.267,0.29
-9.767,-0.835,-0.072,0.215,-0.07,0.252
-10.636,-0.203,-0.006,0.028,0.091,0.069
-10.722,0.001,-0.055,-0.113,0.246,-0.113
-10.722,0.432,0.018,-0.222,0.165,-0.208
-10.829,0.678,0.155,-0.366,0.376,-0.251
-9.646,0.973,0.165,-0.551,0.681,-0.324
-8.327,0.914,0.13,-0.673,0.68,-0.348
-7.727,1.202,0.258,-0.685,0.627,-0.319
-7.059,1.411,0.083,-0.584,0.76,-0.28
-5.768,1.306,-0.288,-0.377,0.545,-0.192
-5.951,1.494,-0.6,-0.081,0.097,0.003
-6.673,1.664,-0.82,0.189,-0.132,0.29
-7.668,1.752,-0.944,0.415,-0.407,0.545
-9.516,2.01,-0.974,0.599,-0.617,0.743
-10.611,2.08,-1.211,0.657,-0.414,0.665
-10.384,2.061,-1.483,0.697,-0.012,0.475
-10.018,2.397,-1.599,0.883,0.142,0.309
-9.516,2.676,-1.735,1.137,0.302,0.18
-7.633,2.26,-1.898,1.312,0.461,0.085
-6.434,1.95,-1.755,1.489,0.101,0.231
-6.506,1.608,-1.52,1.561,-0.319,0.458
-6.571,0.95,-1.448,1.401,-0.293,0.62
-6.502,0.463,-1.546,1.095,-0.192,0.727
-7.285,0.632,-1.695,0.82,-0.189,0.752
-8.169,1.033,-1.892,0.603,0.048,0.715
-8.922,1.386,-2.279,0.468,0.063,0.682
-9.955,1.794,-2.564,0.346,0.026,0.521
-10.047,1.847,-2.723,0.173,0.101,0.298
-10.047,1.812,-2.7,-0.038,0.011,0.074
-10.589,2.139,-2.487,-0.284,0.252,-0.162
-9.595,2.317,-2.136,-0.543,0.898,-0.487
-7.613,2.242,-1.904,-0.676,1.058,-0.689
-6.899,2.619,-1.72,-0.642,0.883,-0.749
-5.756,2.792,-1.702,-0.52,1.068,-0.616
-4.216,2.727,-1.885,-0.311,0.758,-0.34
-4.206,3.024,-2.293,-0.09,0.322,0.1
-5.122,3.772,-2.719,0.099,0.236,0.524
-5.458,4.493,-3.267,0.226,0.276,1.015
-5.836,5.155,-3.766,0.34,-0.253,1.423
-6.659,5.697,-4.181,0.46,-0.663,1.6
-6.693,6.097,-4.259,0.566,-0.77,1.701
-6.02,6.559,-4.163,0.696,-1.12,1.888
-5.81,6.635,-3.776,0.895,-1.559,1.863
-5.473,6.627,-3.325,1.089,-1.471,1.727
-4.51,6.654,-2.684,1.242,-1.536,1.714
-4.118,6.488,-2.138,1.359,-2.083,1.701
-4.296,5.757,-1.674,1.359,-2.327,1.63
-4.428,5.879,-1.413,1.235,-2.164,1.631
-4.388,6.474,-1.107,1.064,-1.951,1.69
-4.287,7.227,-1.075,0.892,-1.79,1.8
-4.068,8.422,-1.047,0.801,-1.68,1.87
-3.64,9.431,-1.094,0.761,-1.633,1.729
-3.069,10.31,-1.201,0.71,-1.674,1.531
-2.735,10.337,-1.388,0.684,-1.96,1.261
-2.552,9.845,-1.485,0.658,-2.068,0.914
-2.295,8.828,-1.527,0.617,-1.99,0.542
-2.063,8.357,-1.358,0.66,-2.022,0.378
-2.064,7.531,-1.046,0.829,-2.255,0.336
-2.315,7.496,-0.735,1.031,-2.321,0.44
-2.558,7.837,-0.554,1.214,-2.345,0.645
-2.801,8.385,-0.465,1.325,-2.348,0.855
-3.137,9.451,-0.517,1.299,-2.197,1.108
-3.124,9.39,-0.878,1.165,-2.04,1.267
-3.138,9.225,-1.309,0.959,-1.737,1.297
-2.871,8.997,-1.813,0.718,-1.407,1.178
-2.654,8.463,-2.396,0.487,-1.213,1.045
-2.467,7.337,-2.965,0.327,-1.104,0.874
-2.412,7.318,-3.145,0.226,-0.882,0.755
-2.109,7.231,-3.29,0.142,-0.848,0.68
-2.096,7.086,-3.332,0.081,-0.949,0.668
-2.057,7.205,-3.171,0.042,-0.929,0.66
-1.884,7.14,-2.996,-0.007,-0.903,0.615
-1.74,7.013,-2.896,-0.078,-0.946,0.553
-1.791,7.392,-2.835,-0.118,-0.926,0.508
-1.673,8.186,-2.724,-0.114,-0.744,0.477
-1.278,8.588,-2.677,-0.153,-0.584,0.354
-0.977,8.898,-2.831,-0.262,-0.433,0.149
-0.771,9.481,-2.948,-0.362,-0.235,-0.04
-0.417,9.407,-2.914,-0.421,-0.042,-0.205
