ax,ay,az,gx,gy,gz
-3.441,-6.297,-1.591,0.17,0.254,-0.035
-3.563,-6.772,-1.741,0.338,0.15,0.271
-4.076,-7.392,-1.865,0.508,0.088,0.454
-4.575,-7.926,-1.833,0.658,0.192,0.515
-4.957,-8.256,-1.649,0.774,0.298,0.481
-5.182,-8.323,-1.361,0.869,0.444,0.417
-5.27,-8.305,-1.074,0.944,0.595,0.375
-5.143,-8.502,-0.736,0.977,0.81,0.369
-4.921,-8.687,-0.412,0.948,0.893,0.389
-4.706,-8.887,-0.098,0.853,0.913,0.422
-4.492,-9.001,0.101,0.688,0.84,0.432
-4.417,-9.097,0.202,0.485,0.739,0.416
-4.294,-9.034,0.217,0.267,0.567,0.382
-4.24,-9.455,0.172,0.033,0.35,0.299
-4.08,-10.371,0.232,-0.257,0.171,0.139
-3.703,-11.574,0.449,-0.666,-0.044,-0.132
-3.305,-13.14,1.022,-1.198,-0.326,-0.531
-3.04,-14.485,1.79,-1.84,-0.646,-1.02
-2.589,-15.316,2.544,-2.506,-0.959,-1.437
-2.757,-14.884,2.896,-3.044,-1.306,-1.546
-3.122,-13.664,2.901,-3.258,-1.213,-1.223
-3.836,-11.095,2.406,-3.162,-0.946,-0.488
-4.292,-7.866,1.037,-2.88,-0.678,0.543
-5.628,-3.333,-0.595,-2.243,0.226,1.718
-5.535,2.838,-2.962,-1.451,1.479,2.818
-3.205,5.812,-4.205,-0.78,2.306,2.944
-1.324,7.479,-6.733,-0.405,1.854,2.397
-0.162,8.412,-8.284,-0.079,1.897,1.502
1.74,8.432,-9.332,-0.016,1.289,0.176
2.469,6.58,-9.169,-0.076,0.125,-1.482
0.244,6.938,-10.034,-0.083,-1.045,-2.395
-1.189,6.476,-8.781,0.141,-1.1,-2.761
-2.539,5.57,-7.655,0.549,-1.419,-2.871
-3.556,3.025,-6.499,0.958,-1.486,-2.458
-4.165,-0.321,-5.125,1.559,-1.225,-1.643
-4.389,-3.387,-3.472,2.231,-0.869,-0.655
-5.262,-6.2,-2.113,2.959,-0.095,0.127
-4.869,-8.838,-0.134,3.471,0.831,0.814
-4.874,-10.167,1.36,3.804,1.281,1.157
-4.773,-11.806,2.69,3.722,1.849,1.205
-4.107,-13.371,3.627,3.279,2.173,0.953
-2.945,-13.88,3.791,2.462,1.967,0.654
-2.206,-14.476,3.308,1.501,1.376,0.206
-1.385,-15.056,2.962,0.545,0.931,-0.273
-0.883,-15.22,2.55,-0.398,0.046,-0.755
-0.879,-15.16,2.424,-1.237,-0.653,-1.238
-0.651,-15.251,2.969,-1.939,-1.246,-1.626
-1.1,-14.672,3.069,-2.459,-1.675,-1.768
-1.875,-13.759,2.902,-2.775,-2.005,-1.647
-2.64,-12.258,2.244,-2.851,-1.559,-1.2
-3.127,-10.496,1.166,-2.777,-1.252,-0.504
-3.55,-7.841,-0.525,-2.605,-0.256,0.558
-3.331,-2.468,-2.377,-2.314,0.565,1.938
-2.902,2.91,-4.887,-1.82,1.56,2.881
-0.838,5.187,-6.576,-1.355,1.589,2.902
0.011,7.202,-8.205,-0.959,1.523,2.34
1.32,8.606,-9.392,-0.541,1.132,1.283
1.833,7.374,-10.318,-0.203,0.446,-0.362
2.094,5.854,-10.124,-0.038,-0.24,-1.767
0.509,6.519,-10.49,0.145,-0.724,-2.411
-0.51,6.011,-9.827,0.427,-0.995,-2.507
-2.133,5.032,-9.064,0.877,-1.283,-2.304
-2.928,2.064,-7.351,1.356,-1.214,-1.684
-3.848,-1.315,-5.504,1.908,-1.028,-0.836
-4.454,-4.348,-3.323,2.425,-0.375,0.046
-4.353,-6.868,-1.612,2.823,0.375,0.861
-4.643,-9.334,-0.176,3.023,0.887,1.453
-4.859,-10.492,0.827,3.073,1.487,1.707
-4.396,-12.088,1.604,2.82,1.729,1.657
-3.785,-13.532,1.883,2.334,1.631,1.32
-2.931,-14.5,2.034,1.666,1.338,0.724
-1.644,-15.098,2.036,0.835,0.762,0.085
-0.849,-15.88,1.774,-0.001,0.081,-0.491
-0.466,-16.045,1.436,-0.753,-0.59,-1.019
-0.434,-16.341,1.57,-1.412,-1.228,-1.419
-1.233,-16.459,1.417,-1.966,-1.603,-1.616
-2.36,-15.995,1.437,-2.377,-1.722,-1.531
-3.416,-14.338,1.453,-2.65,-1.345,-1.152
-4.562,-11.612,0.882,-2.75,-0.825,-0.381
-4.663,-7.227,0.077,-2.726,0.24,0.801
-4.626,0.164,-1.786,-2.378,1.231,2.105
-1.604,3.832,-3.027,-1.837,2.303,2.567
0.129,5.875,-5.355,-1.385,1.818,2.26
2.68,7.047,-7.117,-0.947,2.027,1.745
4.174,6.53,-8.842,-0.573,1.192,0.907
5.358,3.315,-9.478,-0.363,0.437,-0.308
3.783,3.531,-10.406,-0.264,-0.372,-1.152
3.373,5.063,-10.29,-0.039,-0.146,-1.625
2.0,5.906,-10.176,0.238,-0.64,-2.141
0.851,6.092,-9.786,0.663,-0.863,-2.519
-0.194,5.085,-8.554,1.061,-1.331,-2.468
-1.548,3.099,-7.554,1.523,-1.629,-1.971
-2.641,-0.013,-5.814,1.986,-1.669,-1.117
-3.821,-2.928,-3.8,2.465,-1.456,-0.182
-4.698,-5.819,-1.842,2.807,-0.744,0.717
-5.468,-8.972,-0.043,3.161,0.09,1.394
-5.327,-11.297,1.532,3.232,0.761,1.769
-5.156,-13.294,2.099,3.034,1.225,1.736
-4.405,-14.863,2.38,2.508,1.405,1.405
-3.647,-15.546,2.322,1.836,1.203,0.787
-2.537,-15.245,1.782,0.987,0.919,0.068
-1.977,-15.333,1.44,0.174,0.442,-0.581
-1.392,-15.242,1.613,-0.567,-0.117,-1.152
-0.903,-15.404,2.012,-1.263,-0.866,-1.65
-1.365,-15.443,2.413,-1.876,-1.376,-1.923
-1.54,-15.58,2.437,-2.357,-1.693,-1.908
-2.592,-14.514,2.385,-2.679,-1.609,-1.533
-2.876,-12.436,1.842,-2.837,-1.089,-0.652
-4.141,-7.524,0.801,-2.771,-0.197,0.665
-4.251,0.539,-1.709,-2.515,0.789,2.024
-2.735,4.776,-2.991,-2.007,2.078,2.522
-0.19,7.564,-5.493,-1.516,1.55,2.357
-0.081,9.589,-7.766,-1.037,1.658,1.655
2.353,8.953,-9.66,-0.603,1.259,0.474
3.3,5.462,-10.063,-0.209,0.592,-0.978
2.199,6.232,-11.402,0.0,-0.321,-1.778
1.327,6.624,-10.837,0.257,0.196,-2.125
1.006,6.483,-10.284,0.593,-0.574,-2.177
-1.055,5.532,-9.549,0.993,-0.814,-1.858
-2.058,3.271,-7.84,1.487,-0.795,-1.076
-3.432,0.181,-5.54,2.029,-0.949,-0.036
-5.51,-3.088,-3.654,2.569,-0.593,0.956
-6.148,-6.238,-1.358,2.966,0.177,1.883
-7.042,-8.583,0.616,3.291,0.795,2.475
-7.219,-10.564,1.753,3.339,1.316,2.643
-6.674,-12.758,2.225,3.118,1.778,2.403
-5.383,-14.187,2.486,2.69,1.847,1.906
-3.99,-15.264,2.319,2.074,1.528,1.127
-2.169,-16.121,2.172,1.19,0.985,0.293
-1.528,-16.695,2.139,0.291,0.158,-0.565
-1.233,-16.541,2.561,-0.588,-0.704,-1.35
-1.635,-16.328,3.348,-1.453,-1.691,-2.033
-2.767,-16.075,4.091,-2.169,-2.284,-2.524
-3.498,-15.765,4.342,-2.634,-2.731,-2.657
-4.676,-14.333,3.782,-2.888,-2.5,-2.259
-4.97,-11.866,2.825,-2.989,-2.176,-1.3
-5.558,-6.639,0.684,-2.807,-0.885,0.286
-5.415,1.887,-2.494,-2.469,0.184,1.955
-2.797,5.998,-4.307,-1.95,1.628,2.617
-0.875,8.91,-6.785,-1.442,1.419,2.382
1.327,10.796,-8.737,-0.906,2.037,1.685
3.315,10.267,-9.967,-0.461,1.116,0.241
4.477,6.969,-9.828,-0.044,0.32,-1.469
1.965,7.451,-10.736,0.269,-0.919,-2.343
1.054,6.877,-9.502,0.574,-0.986,-2.498
-1.261,5.547,-8.369,0.956,-1.845,-2.404
-3.223,2.974,-7.047,1.323,-1.736,-1.846
-4.61,-0.826,-5.223,1.837,-1.231,-0.901
-4.939,-4.518,-2.858,2.295,-0.739,0.192
-6.163,-7.291,-1.366,2.765,-0.037,0.974
-5.908,-9.756,0.041,3.024,0.904,1.523
-5.419,-11.133,1.271,3.16,1.368,1.829
-4.744,-12.337,1.745,2.962,1.48,1.841
-3.975,-13.811,1.795,2.565,1.601,1.492
-2.462,-15.169,1.596,1.893,1.302,1.05
-2.097,-15.722,1.064,1.098,0.659,0.467
-1.66,-16.222,0.795,0.202,0.127,-0.229
-1.988,-16.4,0.855,-0.66,-0.498,-1.001
-2.708,-16.076,1.268,-1.443,-1.079,-1.717
-3.403,-15.368,1.809,-2.042,-1.34,-2.239
-3.969,-14.689,2.437,-2.424,-1.619,-2.451
-4.413,-13.556,2.209,-2.523,-1.379,-2.203
-4.145,-11.935,1.781,-2.467,-0.993,-1.4
-3.464,-8.439,0.583,-2.407,-0.419,0.076
-3.727,-0.201,-1.957,-2.279,0.282,1.988
-1.365,3.913,-3.481,-1.816,1.799,2.926
0.205,6.371,-5.629,-1.466,1.127,2.728
0.663,8.816,-7.863,-1.11,1.646,2.121
2.493,9.346,-9.193,-0.647,1.222,0.916
3.562,5.521,-9.036,-0.198,0.271,-0.891
1.33,5.594,-10.075,-0.03,-1.28,-1.942
-0.06,5.667,-9.133,0.147,-0.957,-2.11
-1.259,5.07,-8.212,0.453,-1.963,-2.179
-3.743,3.202,-7.068,0.73,-2.086,-1.989
-4.637,0.518,-5.966,1.181,-1.824,-1.48
-5.031,-2.598,-4.51,1.678,-1.358,-0.718
-5.767,-5.161,-3.276,2.316,-0.824,0.069
-6.019,-7.453,-1.804,2.796,-0.138,0.799
-6.763,-8.765,-0.426,3.293,0.589,1.273
-6.894,-10.256,1.015,3.443,1.328,1.548
-6.77,-11.486,2.273,3.324,1.774,1.494
-5.795,-12.69,3.227,2.856,1.884,1.218
-4.748,-13.913,3.468,2.129,1.595,0.698
-3.545,-14.964,3.04,1.154,1.086,0.047
-3.044,-15.416,2.467,0.186,0.38,-0.694
-2.678,-15.79,2.387,-0.759,-0.378,-1.391
-2.949,-15.542,2.173,-1.59,-1.108,-2.041
-3.161,-14.874,2.54,-2.261,-1.463,-2.394
-3.565,-13.694,3.013,-2.675,-1.708,-2.379
-3.707,-12.069,2.934,-2.855,-1.498,-1.971
-3.869,-10.252,2.088,-2.809,-1.447,-1.244
-3.967,-7.512,0.738,-2.688,-0.672,-0.108
-4.454,-3.084,-1.717,-2.378,-0.092,1.308
-4.283,2.87,-4.845,-1.971,1.016,2.599
-1.933,5.645,-6.612,-1.502,1.578,2.913
-0.755,7.758,-8.563,-1.097,1.07,2.489
-0.292,9.245,-9.967,-0.631,0.927,1.488
1.423,8.836,-10.032,-0.24,0.852,0.003
2.064,6.309,-9.49,0.089,-0.425,-1.549
-0.547,5.756,-9.487,0.283,-1.434,-2.353
-2.191,5.404,-9.015,0.548,-0.992,-2.548
-2.509,3.799,-7.753,0.895,-1.252,-2.318
-4.223,1.321,-6.91,1.272,-1.618,-1.773
-5.051,-1.674,-5.442,1.648,-0.893,-1.019
-4.956,-3.938,-4.101,2.049,-0.22,-0.127
-5.322,-6.364,-2.644,2.412,0.401,0.665
-5.344,-8.54,-1.33,2.607,0.937,1.322
-5.654,-9.771,-0.006,2.677,1.45,1.662
-5.233,-10.761,0.937,2.56,1.706,1.734
-4.71,-12.633,1.716,2.289,1.764,1.541
-3.159,-14.123,2.061,1.779,1.403,1.12
-2.527,-14.931,1.639,1.119,0.907,0.431
-1.292,-15.899,1.236,0.355,0.337,-0.249
-1.239,-16.332,1.151,-0.414,-0.406,-0.963
-1.425,-15.867,1.278,-1.203,-1.141,-1.667
-1.943,-15.225,1.768,-1.88,-1.569,-2.112
-2.69,-14.638,2.162,-2.337,-1.915,-2.18
-3.088,-13.66,2.34,-2.551,-1.732,-1.806
-3.692,-11.756,1.55,-2.552,-1.613,-1.049
-4.058,-8.998,0.254,-2.396,-0.588,0.219
-3.43,-2.673,-1.576,-2.128,0.244,1.844
-3.768,3.47,-3.772,-1.654,1.198,3.037
-1.632,6.342,-5.795,-1.278,1.625,3.016
-0.165,8.535,-8.082,-0.924,1.941,2.448
1.847,9.57,-9.575,-0.549,1.421,1.462
1.791,7.564,-10.529,-0.172,0.859,-0.149
2.9,5.798,-10.469,0.005,-0.006,-1.619
0.497,6.467,-10.207,0.208,-0.59,-2.207
-0.642,6.004,-8.91,0.364,-1.082,-2.422
-2.468,4.778,-7.69,0.615,-1.297,-2.453
-3.08,2.851,-6.525,0.977,-1.382,-2.064
-3.605,-0.2,-5.262,1.465,-1.288,-1.271
-4.058,-3.212,-3.875,2.16,-1.256,-0.343
-5.145,-5.789,-2.044,2.912,-0.683,0.508
-5.426,-8.296,-0.182,3.482,-0.197,1.128
-5.763,-10.538,1.766,3.78,0.61,1.477
-5.662,-12.254,2.983,3.741,1.089,1.509
-4.968,-13.788,3.725,3.256,1.637,1.268
-3.638,-14.861,3.568,2.454,1.454,0.798
-3.04,-15.148,3.009,1.485,1.257,0.236
-2.695,-15.565,2.42,0.47,0.539,-0.387
-2.542,-15.583,2.373,-0.528,0.097,-1.083
-2.7,-15.531,2.751,-1.414,-0.595,-1.704
-2.671,-15.487,3.328,-2.112,-0.894,-2.141
-2.989,-15.003,3.775,-2.621,-1.455,-2.26
-3.248,-14.364,3.576,-2.899,-1.333,-2.005
-3.65,-13.117,2.908,-2.917,-1.241,-1.325
-3.684,-10.199,1.762,-2.799,-0.576,-0.103
-3.758,-2.822,-0.221,-2.461,0.209,1.638
-3.432,3.231,-2.06,-1.942,1.475,2.746
-0.661,6.382,-3.98,-1.565,1.616,2.62
0.182,9.585,-6.905,-1.147,1.756,1.927
1.902,11.231,-8.799,-0.703,1.722,0.617
3.037,8.658,-10.006,-0.332,1.032,-1.185
3.708,6.585,-10.884,-0.051,-0.195,-2.468
1.18,6.884,-10.763,0.381,-0.849,-2.665
0.149,5.456,-9.238,0.703,-1.259,-2.414
-1.674,3.463,-8.053,1.104,-1.913,-1.839
-3.63,0.876,-6.66,1.547,-1.932,-1.131
-5.131,-2.085,-5.07,2.137,-1.409,-0.321
-5.513,-4.918,-2.924,2.7,-0.642,0.507
-5.927,-7.084,-1.159,3.186,-0.029,1.115
-5.991,-9.326,0.845,3.44,0.867,1.555
-5.247,-11.464,2.487,3.33,1.348,1.796
-4.554,-13.1,3.324,2.846,1.477,1.707
-4.107,-14.503,2.837,2.151,1.253,1.292
-3.339,-15.354,2.202,1.371,1.0,0.742
-2.954,-15.548,1.076,0.545,0.377,0.09
-3.036,-15.672,0.499,-0.187,-0.045,-0.653
-2.941,-15.508,0.648,-0.896,-0.53,-1.275
-2.967,-15.109,1.178,-1.525,-0.86,-1.715
-3.11,-14.716,1.912,-2.092,-1.162,-1.905
-3.234,-14.421,2.574,-2.469,-1.245,-1.825
-3.818,-13.234,2.64,-2.688,-1.285,-1.355
-4.092,-11.198,1.88,-2.694,-0.675,-0.468
-4.411,-5.762,0.346,-2.513,0.055,0.878
-4.695,2.06,-1.912,-2.032,0.999,2.24
-2.362,5.255,-4.139,-1.654,1.612,2.598
-1.176,7.924,-7.036,-1.193,1.64,2.289
0.753,9.896,-9.023,-0.765,1.816,1.61
2.425,8.394,-10.048,-0.402,1.163,0.342
3.43,5.003,-10.257,-0.205,0.107,-1.167
1.223,6.001,-10.485,0.091,-0.619,-1.882
0.749,6.106,-9.26,0.314,-0.868,-2.07
-1.692,5.195,-8.319,0.598,-1.871,-2.154
-3.498,3.253,-7.39,0.978,-1.699,-1.888
-4.444,0.529,-5.938,1.386,-1.31,-1.252
-5.32,-2.576,-4.508,1.897,-1.079,-0.434
-6.266,-5.685,-2.678,2.447,-0.422,0.325
-6.159,-8.055,-1.0,2.881,0.275,0.929
-6.029,-10.061,0.621,3.069,0.81,1.299
-5.325,-12.184,1.69,2.997,1.187,1.399
-4.381,-13.303,2.36,2.666,1.453,1.232
-3.394,-13.488,1.88,2.148,1.318,0.898
-2.441,-13.86,1.504,1.519,1.262,0.524
-2.16,-14.047,1.012,0.855,0.678,0.059
-2.172,-14.354,0.822,0.207,0.164,-0.528
-1.86,-15.169,1.332,-0.517,-0.368,-1.112
-2.016,-16.203,2.571,-1.252,-1.01,-1.725
-2.28,-16.895,3.829,-1.974,-1.549,-2.234
-2.261,-16.4,4.412,-2.479,-1.714,-2.263
-2.747,-14.593,4.27,-2.769,-1.732,-1.63
-3.567,-11.309,3.222,-2.829,-1.215,-0.451
-3.96,-4.422,0.763,-2.607,-0.323,1.342
-4.798,4.184,-2.659,-2.027,0.796,2.942
-1.937,7.194,-4.693,-1.575,1.287,2.965
-1.245,9.907,-7.629,-1.13,1.517,2.459
1.747,10.744,-9.356,-0.697,1.438,1.646
2.472,8.627,-10.288,-0.346,0.734,0.055
3.704,5.491,-9.934,-0.221,-0.295,-1.606
0.543,6.451,-9.912,-0.015,-0.878,-2.053
-0.139,6.314,-8.473,0.208,-1.303,-2.299
-3.236,5.286,-7.172,0.529,-1.867,-2.456
-3.885,3.385,-5.458,1.015,-1.972,-2.124
-4.927,-0.289,-4.097,1.64,-2.021,-1.297
-6.104,-3.655,-2.638,2.509,-1.545,-0.397
-6.714,-7.781,-0.571,3.195,-0.944,0.421
-7.278,-10.039,1.038,3.717,-0.095,0.875
-6.965,-12.385,2.413,3.784,0.869,1.077
-6.566,-13.408,3.385,3.494,1.662,0.929
-4.74,-14.323,4.069,2.745,1.964,0.635
-3.475,-13.828,3.785,1.886,1.801,0.185
-2.445,-13.815,3.102,0.879,1.263,-0.211
-2.31,-13.822,2.594,-0.05,0.511,-0.685
-2.045,-14.338,2.338,-0.934,-0.258,-1.165
-2.22,-14.576,2.104,-1.703,-0.944,-1.537
-3.423,-15.082,2.061,-2.303,-1.434,-1.817
-3.558,-15.312,2.563,-2.713,-1.335,-1.918
-3.878,-14.206,2.335,-2.874,-1.208,-1.583
-4.336,-11.758,1.858,-2.804,-0.61,-0.754
-4.966,-7.388,0.61,-2.611,0.016,0.377
-4.33,-0.815,-1.254,-2.33,1.17,1.798
-3.507,5.006,-4.083,-1.827,2.014,2.753
-0.535,7.59,-6.182,-1.394,1.85,2.856
0.03,9.078,-8.462,-0.975,1.58,2.365
2.461,8.457,-9.717,-0.594,1.41,1.487
3.192,6.284,-10.307,-0.189,0.321,0.032
3.005,4.986,-9.872,-0.007,-0.881,-1.248
0.001,5.812,-9.532,0.199,-1.16,-2.035
-0.604,5.713,-8.558,0.367,-1.588,-2.476
-3.091,4.572,-7.705,0.638,-2.092,-2.689
-3.839,2.796,-6.678,0.93,-1.908,-2.429
-4.549,-0.324,-5.255,1.354,-1.695,-1.681
-4.911,-3.948,-3.849,1.782,-1.173,-0.716
-5.185,-7.088,-2.202,2.251,-0.264,0.14
-4.576,-9.068,-0.912,2.525,0.401,0.807
-4.555,-11.224,0.452,2.673,1.008,1.24
-4.14,-12.759,0.907,2.564,1.388,1.349
-3.538,-13.69,0.981,2.247,1.529,1.131
-2.821,-14.243,0.517,1.699,1.174,0.699
-2.526,-14.965,0.247,1.052,0.888,0.175
-2.278,-15.301,-0.205,0.288,0.298,-0.429
-2.157,-15.729,-0.147,-0.468,-0.099,-1.1
-1.993,-15.944,0.344,-1.179,-0.456,-1.686
-1.976,-15.775,1.053,-1.754,-0.887,-2.035
-2.265,-15.13,1.64,-2.194,-0.967,-2.01
-2.282,-14.131,1.756,-2.489,-0.852,-1.494
-2.723,-11.182,1.346,-2.655,-0.399,-0.482
-2.873,-4.724,-0.022,-2.633,0.444,1.15
-3.173,3.277,-2.494,-2.331,1.488,2.547
-0.175,6.359,-4.435,-1.94,1.933,2.815
0.295,9.244,-7.189,-1.427,1.425,2.34
1.302,11.055,-9.47,-0.882,1.597,1.353
2.899,9.515,-10.512,-0.342,0.907,-0.31
3.486,6.183,-10.59,-0.008,-0.381,-1.902
0.524,6.898,-10.85,0.318,-1.093,-2.567
-0.098,6.708,-9.732,0.659,-0.944,-2.686
-1.318,5.046,-8.161,1.049,-1.763,-2.476
-3.134,2.318,-6.869,1.438,-1.929,-1.897
-3.758,-1.046,-4.895,1.887,-1.379,-0.978
-4.286,-4.292,-3.008,2.41,-0.979,0.09
-4.914,-7.545,-1.136,2.799,-0.363,0.978
-4.759,-10.51,0.466,3.061,0.446,1.563
-4.5,-12.371,1.41,3.059,0.831,1.766
-4.056,-13.952,1.531,2.801,1.12,1.594
-3.4,-15.26,1.256,2.29,1.157,1.095
-2.395,-15.813,0.902,1.561,0.897,0.453
-2.135,-15.515,0.163,0.709,0.499,-0.21
-1.683,-15.852,0.349,-0.106,0.179,-0.8
-1.987,-15.809,0.738,-0.889,-0.406,-1.312
-2.044,-15.705,1.503,-1.595,-0.755,-1.702
-2.832,-15.643,2.241,-2.13,-0.885,-1.842
-2.819,-14.846,3.015,-2.462,-0.964,-1.591
-3.587,-12.317,2.913,-2.623,-0.729,-0.836
-3.266,-7.388,2.13,-2.647,0.042,0.443
-3.568,0.761,-0.584,-2.5,0.693,1.93
-1.115,4.675,-2.586,-2.119,1.493,2.621
-0.479,7.593,-6.201,-1.726,1.081,2.512
0.428,9.266,-8.929,-1.29,1.511,1.876
1.592,8.36,-10.926,-0.833,0.913,0.711
2.221,4.821,-11.017,-0.404,0.203,-0.813
0.218,5.622,-11.574,-0.137,-0.74,-1.764
-0.468,6.459,-10.336,0.166,-0.378,-2.182
-1.501,6.278,-9.343,0.483,-1.333,-2.389
-3.117,5.284,-7.745,0.922,-1.543,-2.29
-4.022,3.148,-6.247,1.441,-1.602,-1.776
-4.851,-0.122,-4.502,2.062,-1.302,-0.904
-5.733,-4.143,-2.736,2.608,-0.861,0.2
-6.336,-7.629,-0.579,3.012,0.069,1.122
-6.467,-10.413,0.824,3.076,0.681,1.642
-6.221,-12.507,1.702,2.855,1.445,1.749
-5.303,-13.538,1.831,2.39,1.786,1.528
-4.171,-13.951,1.581,1.732,1.579,0.942
-3.308,-14.217,0.603,1.056,1.11,0.265
-2.468,-14.337,-0.191,0.428,0.783,-0.382
-2.298,-14.648,-0.349,-0.187,0.107,-1.0
-2.273,-15.442,-0.06,-0.775,-0.517,-1.579
-2.662,-15.748,0.7,-1.333,-1.052,-2.037
-2.809,-15.38,1.586,-1.859,-1.315,-2.188
-3.829,-14.189,2.152,-2.237,-1.465,-1.928
-3.96,-12.314,1.95,-2.444,-0.972,-1.2
-4.031,-8.22,1.037,-2.525,-0.437,0.023
-3.459,-0.96,-0.921,-2.443,0.263,1.684
-3.77,4.708,-3.251,-2.008,0.872,2.712
-0.854,7.25,-5.746,-1.659,1.406,2.618
0.136,9.51,-8.163,-1.248,1.184,2.069
0.977,10.059,-9.953,-0.822,0.984,0.953
1.343,7.795,-10.744,-0.317,0.681,-0.735
2.138,6.279,-11.057,-0.062,-0.076,-1.956
-0.209,6.535,-10.399,0.314,-0.757,-2.256
-1.532,5.936,-9.289,0.644,-1.232,-2.329
-2.719,4.278,-7.355,0.993,-1.536,-2.064
-3.897,1.812,-5.919,1.353,-1.72,-1.467
-4.645,-1.344,-3.94,1.783,-1.391,-0.696
-5.25,-4.388,-2.283,2.242,-0.833,0.162
-5.51,-6.818,-0.713,2.682,-0.236,0.855
-5.563,-9.419,0.217,2.969,0.361,1.322
-5.694,-11.465,0.898,3.017,0.715,1.483
-5.219,-13.039,0.891,2.742,1.1,1.354
-4.513,-14.451,0.618,2.232,1.104,0.879
-3.486,-15.84,0.427,1.449,0.989,0.273
-3.207,-15.798,-0.042,0.597,0.554,-0.457
-2.465,-15.912,-0.023,-0.249,0.26,-1.143
-2.576,-15.45,0.465,-0.967,-0.306,-1.69
-2.555,-14.619,0.982,-1.625,-0.781,-2.048
-3.002,-13.674,1.477,-2.093,-1.017,-2.065
-2.828,-12.613,1.598,-2.376,-1.066,-1.715
-3.59,-11.058,1.357,-2.512,-0.948,-0.99
-4.082,-8.34,0.612,-2.531,-0.538,-0.025
-4.166,-3.587,-0.857,-2.403,0.539,1.35
-3.944,3.497,-4.131,-2.103,1.296,2.502
-1.06,6.094,-5.896,-1.695,1.878,2.728
0.046,8.186,-8.485,-1.232,1.438,2.183
2.434,9.315,-10.323,-0.746,1.762,1.406
3.607,8.587,-11.235,-0.281,0.578,0.007
3.87,6.173,-10.044,0.065,-0.251,-1.504
0.825,7.195,-9.981,0.345,-1.133,-2.271
-0.266,6.89,-8.324,0.594,-1.133,-2.386
-2.859,5.786,-7.162,1.021,-1.73,-2.308
-4.059,2.777,-5.771,1.487,-1.197,-1.657
-5.026,-1.383,-3.917,2.093,-0.926,-0.55
-5.822,-5.551,-2.19,2.583,-0.172,0.621
-6.234,-8.388,-0.519,3.119,0.812,1.534
-5.793,-10.897,1.079,3.304,1.298,2.114
-6.134,-12.535,2.12,3.311,1.511,2.201
-5.329,-13.714,2.275,3.001,1.909,1.86
-3.675,-15.3,3.171,2.481,1.681,1.185
-2.149,-16.609,3.18,1.545,0.903,0.308
-1.229,-17.371,2.961,0.487,0.139,-0.56
-0.766,-17.277,3.053,-0.565,-0.693,-1.407
-1.106,-17.29,3.539,-1.53,-1.674,-2.107
-2.328,-15.91,3.213,-2.251,-2.167,-2.599
-2.872,-14.723,3.151,-2.616,-2.334,-2.603
-3.774,-13.111,2.883,-2.656,-2.166,-2.141
-4.13,-10.734,1.919,-2.488,-1.792,-1.19
-3.833,-6.812,0.4,-2.255,-0.903,0.27
-3.466,0.116,-1.829,-2.06,-0.552,2.106
-4.331,5.315,-4.369,-1.608,0.763,3.104
-1.62,7.612,-7.047,-1.303,1.104,3.033
-1.146,9.545,-9.58,-1.009,1.165,2.377
-0.162,10.207,-11.127,-0.657,1.102,1.015
0.397,7.814,-11.629,-0.247,1.045,-0.857
1.5,6.465,-11.027,-0.149,-0.12,-2.07
-0.884,6.805,-9.712,0.089,-0.578,-2.468
-1.641,5.86,-8.15,0.3,-0.99,-2.48
-2.975,3.926,-6.714,0.695,-1.232,-2.035
-3.786,1.107,-5.091,1.333,-1.324,-1.19
-4.909,-2.167,-3.713,2.102,-1.16,-0.231
-5.983,-5.312,-2.124,2.898,-0.567,0.656
-6.463,-7.85,-0.317,3.572,0.28,1.383
-7.106,-9.659,0.898,3.901,0.809,1.736
-7.106,-11.494,1.922,3.806,1.625,1.788
-6.506,-12.744,2.296,3.429,2.051,1.607
-4.979,-13.87,2.37,2.702,2.175,1.239
-3.988,-14.795,2.172,1.813,1.753,0.614
-2.606,-15.451,2.004,0.822,1.227,-0.052
-2.096,-15.427,1.663,-0.099,0.365,-0.767
-1.941,-15.118,1.827,-0.933,-0.303,-1.46
-2.727,-14.734,2.128,-1.601,-1.127,-2.035
-3.161,-14.227,2.608,-2.115,-1.603,-2.387
-3.761,-13.692,2.888,-2.427,-2.007,-2.45
-4.504,-12.53,2.643,-2.566,-2.073,-2.185
-4.343,-10.997,2.058,-2.573,-1.917,-1.528
-5.451,-8.308,0.654,-2.353,-1.638,-0.615
-5.059,-4.09,-1.221,-2.088,-0.806,0.64
-6.495,2.351,-3.933,-1.65,-0.417,1.835
-5.077,6.118,-5.867,-1.296,0.858,2.432
-3.439,8.561,-8.141,-0.935,0.811,2.097
-1.979,10.137,-10.228,-0.709,0.881,1.279
-1.4,10.367,-11.26,-0.402,0.826,0.028
0.517,7.679,-11.204,-0.207,0.692,-1.267
-0.36,6.338,-10.749,0.054,-0.456,-2.12
-2.439,5.752,-9.756,0.365,-0.495,-2.279
-2.418,3.873,-7.887,0.683,-0.525,-1.979
-3.418,1.596,-6.379,1.124,-0.893,-1.399
-4.018,-0.956,-5.045,1.616,-0.679,-0.653
-4.656,-3.456,-3.776,2.228,-0.212,0.124
-4.732,-5.899,-2.348,2.712,0.326,0.886
-5.439,-7.613,-1.015,3.1,0.925,1.438
-5.35,-9.966,0.482,3.176,1.472,1.832
-5.552,-11.421,1.81,2.99,1.694,1.854
-4.687,-12.374,2.417,2.444,1.679,1.617
-3.871,-13.507,2.51,1.756,1.481,1.196
-2.702,-14.48,1.94,0.989,0.831,0.654
-2.353,-14.943,1.013,0.231,0.126,-0.065
-2.094,-15.401,0.562,-0.488,-0.422,-0.766
-2.403,-15.733,0.342,-1.071,-0.955,-1.453
-2.56,-15.753,0.778,-1.576,-1.334,-2.019
-2.985,-15.23,1.377,-1.971,-1.484,-2.292
-3.066,-14.072,2.025,-2.258,-1.574,-2.18
-3.088,-12.363,1.964,-2.374,-1.474,-1.642
-3.251,-10.182,1.542,-2.38,-1.199,-0.658
-3.546,-7.004,0.362,-2.313,-0.703,0.63
-4.122,-0.362,-1.548,-2.055,-0.014,2.137
-3.832,4.863,-4.061,-1.555,1.316,3.069
-1.397,6.731,-6.027,-1.189,1.244,2.953
-0.41,8.608,-8.557,-0.875,1.73,2.382
2.156,9.026,-10.119,-0.481,1.541,1.691
3.062,5.974,-11.064,-0.214,0.962,0.383
3.76,4.527,-10.94,-0.149,0.104,-0.927
2.143,5.939,-10.632,-0.012,0.044,-1.564
1.259,6.035,-9.105,0.153,-0.891,-1.958
-1.429,5.995,-8.107,0.352,-1.303,-2.396
-2.204,4.877,-6.712,0.66,-1.354,-2.399
-3.612,2.66,-5.621,1.123,-1.56,-1.863
-4.477,-1.182,-4.361,1.612,-1.21,-0.945
-5.029,-4.113,-3.28,2.196,-0.755,-0.005
-5.56,-6.858,-1.895,2.667,-0.2,0.824
-5.729,-9.065,-0.351,2.988,0.329,1.453
-5.592,-11.025,0.78,3.015,0.589,1.881
-5.583,-12.19,1.195,2.892,0.719,1.947
-5.023,-13.801,1.204,2.469,0.747,1.663
-4.602,-14.846,0.625,1.819,0.549,1.094
-4.127,-15.245,-0.055,0.984,0.319,0.392
-4.035,-15.279,-0.527,0.124,-0.004,-0.393
-3.966,-14.847,-0.437,-0.681,-0.247,-1.182
-3.933,-14.28,0.001,-1.374,-0.483,-1.731
-4.05,-13.756,0.609,-1.87,-0.595,-2.012
-4.405,-13.33,1.061,-2.193,-0.843,-2.101
-4.365,-12.462,1.334,-2.347,-0.83,-1.944
-4.317,-11.189,1.326,-2.385,-0.82,-1.508
-4.391,-9.557,0.699,-2.32,-0.646,-0.882
-4.198,-7.492,-0.251,-2.193,-0.355,0.01
-3.571,-2.836,-1.856,-1.939,0.29,1.495
-4.018,4.264,-4.92,-1.488,1.133,2.686
-0.977,5.624,-6.178,-1.17,1.455,2.561
-0.175,8.495,-8.7,-0.854,1.332,1.996
1.694,10.02,-10.214,-0.513,1.418,1.203
2.412,9.048,-11.344,-0.25,0.898,-0.291
3.645,5.008,-10.624,-0.205,-0.087,-1.729
0.679,6.527,-11.227,0.002,-0.353,-2.055
0.18,5.653,-10.071,0.22,-0.381,-2.003
-1.831,5.112,-9.091,0.551,-0.806,-1.943
-3.146,3.851,-7.902,0.988,-0.897,-1.698
-3.763,1.56,-6.528,1.477,-0.676,-1.159
-4.178,-0.976,-5.282,2.019,-0.731,-0.467
-4.653,-3.672,-3.573,2.474,-0.432,0.191
-4.843,-5.891,-2.111,2.795,0.046,0.87
-4.704,-8.023,-0.255,2.922,0.627,1.444
-4.991,-9.635,1.319,2.877,0.929,1.866
-5.082,-11.232,2.379,2.626,1.194,2.057
-4.853,-12.399,2.518,2.268,1.117,1.993
-4.504,-13.678,2.072,1.762,0.94,1.613
-4.074,-14.895,1.117,1.126,0.456,1.032
-4.047,-15.42,0.147,0.441,0.066,0.209
-3.716,-15.841,-0.379,-0.307,-0.294,-0.676
-3.817,-15.674,-0.339,-1.02,-0.52,-1.491
-3.855,-15.464,0.259,-1.71,-0.845,-2.116
-4.095,-14.726,0.958,-2.199,-0.936,-2.492
-3.775,-13.498,1.129,-2.476,-0.92,-2.445
-3.368,-11.819,0.826,-2.484,-0.726,-1.941
-2.79,-9.91,0.233,-2.374,-0.618,-1.05
-2.799,-7.244,-0.742,-2.124,-0.591,0.101
-3.059,-3.627,-1.898,-1.879,0.123,1.487
-4.086,2.045,-4.156,-1.559,0.947,2.607
-1.824,4.555,-4.675,-1.282,2.257,2.845
-0.139,6.027,-6.296,-1.005,1.325,2.361
0.049,7.027,-8.24,-0.741,1.871,1.598
2.29,6.912,-9.566,-0.446,1.498,0.441
4.248,4.557,-9.545,-0.242,0.557,-0.906
2.365,5.144,-10.883,-0.072,-0.944,-1.796
1.053,5.972,-10.725,0.147,-0.138,-2.221
1.238,6.239,-10.044,0.452,-0.858,-2.489
-0.738,5.565,-9.464,0.835,-1.299,-2.478
-1.75,3.668,-8.283,1.259,-1.242,-2.011
-2.61,1.191,-6.465,1.712,-1.157,-1.218
-3.643,-1.679,-4.681,2.102,-0.915,-0.263
-4.41,-4.567,-2.544,2.443,-0.392,0.748
-4.808,-6.928,-0.594,2.679,0.055,1.578
-5.295,-9.057,0.811,2.784,0.331,2.089
-5.611,-11.12,1.227,2.713,0.556,2.281
-5.691,-12.884,1.294,2.535,0.785,2.095
-5.156,-14.158,0.819,2.112,0.75,1.584
-4.73,-14.983,0.195,1.538,0.744,0.911
-3.893,-15.218,-0.245,0.858,0.601,0.227
-3.393,-15.247,-0.385,0.148,0.334,-0.441
-3.145,-14.884,-0.099,-0.542,-0.107,-1.057
-3.3,-14.597,0.532,-1.177,-0.48,-1.589
-3.499,-14.572,1.291,-1.736,-0.859,-1.989
-4.272,-14.276,1.765,-2.141,-1.155,-2.216
-4.431,-13.611,1.97,-2.387,-1.127,-2.142
-4.807,-11.814,1.57,-2.447,-1.105,-1.616
-4.743,-8.835,0.793,-2.36,-0.661,-0.663
-4.62,-3.896,-0.789,-2.13,-0.196,0.675
-4.538,2.422,-3.199,-1.855,0.495,1.965
-2.559,5.384,-4.965,-1.515,1.277,2.478
-1.063,7.337,-7.433,-1.184,1.085,2.303
-0.129,7.969,-9.517,-0.862,1.212,1.639
1.213,6.937,-10.655,-0.569,1.063,0.418
2.228,4.702,-10.934,-0.297,0.626,-0.988
1.111,5.354,-11.319,-0.088,-0.095,-1.827
0.599,5.748,-10.493,0.135,0.04,-2.248
-0.197,5.621,-9.68,0.383,-0.609,-2.386
-1.652,4.599,-8.444,0.712,-0.919,-2.174
-2.533,2.345,-7.149,1.098,-1.009,-1.598
-3.544,-0.559,-5.579,1.569,-1.031,-0.834
-4.393,-3.564,-3.97,1.994,-0.675,0.085
-4.866,-6.16,-2.257,2.398,-0.285,0.865
-5.258,-8.413,-0.757,2.682,0.18,1.537
-5.318,-10.169,0.536,2.808,0.447,1.926
-5.091,-11.821,1.073,2.724,0.644,2.048
-4.812,-13.184,1.049,2.496,0.593,1.809
-4.204,-14.393,0.637,2.066,0.576,1.387
-3.615,-15.097,-0.178,1.448,0.378,0.734
-3.134,-15.304,-0.679,0.761,0.236,0.036
-2.819,-14.794,-0.769,0.069,0.047,-0.66
-2.564,-14.457,-0.398,-0.625,-0.253,-1.227
-2.785,-14.004,0.244,-1.237,-0.481,-1.631
-2.846,-13.547,0.892,-1.699,-0.743,-1.804
-3.059,-13.0,1.383,-2.06,-0.97,-1.757
-3.774,-12.393,1.46,-2.31,-1.12,-1.486
-4.137,-11.11,0.908,-2.391,-0.62,-1.031
-3.543,-9.131,0.179,-2.364,-0.259,-0.288
-3.403,-5.345,-1.253,-2.244,0.202,0.844
-3.203,0.956,-3.347,-1.99,0.759,2.126
-1.668,4.149,-5.202,-1.623,1.462,2.641
-0.104,6.246,-7.462,-1.292,1.015,2.476
-0.087,7.876,-9.516,-0.889,1.034,1.878
1.085,7.483,-10.593,-0.537,0.739,0.73
1.189,4.677,-10.869,-0.237,0.21,-0.805
0.603,4.76,-10.861,-0.014,-0.469,-1.735
-0.773,5.521,-9.949,0.259,-0.5,-2.167
-1.378,5.347,-8.872,0.496,-0.997,-2.315
-2.981,4.56,-7.872,0.85,-1.204,-2.181
-3.517,2.677,-6.883,1.259,-1.265,-1.692
-4.659,0.114,-5.52,1.759,-1.053,-0.98
-4.906,-2.863,-3.514,2.201,-0.726,0.014
-5.672,-5.818,-1.346,2.701,-0.398,0.948
-5.867,-8.685,0.728,3.016,0.11,1.653
-5.937,-11.107,2.25,3.088,0.527,2.014
-5.795,-12.823,2.678,2.893,0.743,2.002
-5.676,-14.223,2.363,2.454,0.761,1.531
-5.147,-15.143,1.553,1.729,0.882,0.833
-4.571,-15.381,0.671,0.877,0.653,0.078
-4.23,-15.347,0.507,0.006,0.47,-0.681
-3.83,-15.231,0.858,-0.867,0.019,-1.357
-3.753,-14.95,1.416,-1.602,-0.272,-1.923
-3.739,-14.308,2.07,-2.185,-0.698,-2.265
-3.969,-13.749,2.468,-2.539,-0.831,-2.388
-3.958,-12.861,2.358,-2.658,-0.914,-2.118
-4.003,-11.217,1.677,-2.559,-0.676,-1.432
-3.683,-8.43,0.6,-2.354,-0.214,-0.263
-2.876,-3.269,-1.461,-2.164,0.42,1.351
-2.753,4.333,-4.572,-1.739,1.252,2.731
-0.317,6.943,-6.593,-1.395,1.299,3.013
-0.111,9.459,-9.133,-1.092,1.355,2.519
2.579,10.037,-10.771,-0.76,1.243,1.778
2.442,8.779,-11.646,-0.296,0.556,0.358
3.007,5.185,-10.674,-0.142,-0.305,-1.233
0.626,6.598,-10.45,0.116,-0.247,-2.042
0.866,6.173,-8.961,0.397,-0.669,-2.246
-2.462,5.569,-7.918,0.738,-1.15,-2.412
-2.604,3.419,-6.463,1.058,-0.945,-2.191
-3.019,0.434,-5.434,1.489,-1.092,-1.399
-3.345,-3.374,-4.209,1.906,-1.241,-0.318
-4.254,-6.201,-3.121,2.377,-0.987,0.649
-4.499,-8.963,-1.724,2.721,-0.603,1.434
-5.568,-10.529,-0.619,2.946,-0.381,1.829
-5.739,-11.666,0.474,2.921,0.233,1.839
-5.749,-12.216,0.969,2.669,0.525,1.522
-5.224,-12.815,1.239,2.138,0.679,1.082
-4.926,-12.983,0.933,1.463,0.502,0.494
-4.666,-13.457,0.506,0.702,0.376,-0.043
-4.647,-13.652,0.158,-0.02,0.036,-0.589
-4.151,-13.97,0.326,-0.751,-0.266,-1.076
-4.305,-14.027,0.605,-1.421,-0.486,-1.507
-3.956,-13.458,1.102,-1.982,-0.559,-1.77
-3.7,-12.701,1.438,-2.415,-0.625,-1.778
-3.668,-11.691,1.521,-2.621,-0.72,-1.505
-4.364,-9.947,0.871,-2.597,-0.394,-0.969
-4.274,-7.588,-0.159,-2.398,-0.131,-0.2
-4.477,-4.234,-1.672,-2.136,0.509,0.87
-3.566,0.284,-3.26,-1.909,0.652,2.038
-4.484,4.697,-6.132,-1.402,1.567,2.809
-0.603,6.135,-7.49,-1.067,1.678,2.722
-0.509,7.339,-9.347,-0.741,1.307,2.244
1.477,7.05,-10.463,-0.434,1.119,1.453
1.927,5.54,-11.205,-0.024,0.87,0.271
3.545,4.191,-10.379,0.034,-0.146,-0.893
0.495,5.277,-10.08,0.217,-0.639,-1.575
0.695,5.781,-8.951,0.401,-0.662,-2.021
-1.226,5.399,-7.847,0.617,-1.385,-2.358
-2.499,4.244,-6.583,0.838,-1.422,-2.356
-3.171,2.172,-5.364,1.116,-1.389,-1.944
-3.704,-0.998,-4.344,1.414,-1.225,-1.184
-4.036,-4.396,-3.222,1.731,-0.912,-0.218
-4.66,-6.588,-2.025,2.129,-0.466,0.719
-4.932,-8.985,-0.706,2.399,-0.097,1.475
-5.829,-10.964,0.141,2.528,0.167,1.956
-6.125,-12.306,0.51,2.476,0.299,2.036
-6.297,-13.631,0.554,2.174,0.271,1.637
-6.155,-14.74,-0.058,1.574,0.234,0.911
-5.94,-14.902,-0.658,0.867,0.17,0.064
-5.123,-14.871,-0.767,0.054,-0.011,-0.769
-5.04,-14.519,-0.55,-0.738,-0.131,-1.421
-4.904,-13.684,-0.157,-1.445,-0.248,-1.877
-4.776,-12.909,0.55,-2.003,-0.359,-2.036
-4.517,-12.047,0.833,-2.363,-0.436,-1.953
-4.744,-10.949,0.523,-2.479,-0.359,-1.602
-4.511,-9.54,-0.251,-2.423,-0.078,-1.043
-4.304,-7.465,-0.93,-2.186,0.329,-0.212
-3.459,-3.631,-2.277,-1.873,0.722,1.028
-3.6,2.248,-4.375,-1.494,0.958,2.252
-1.767,5.219,-5.992,-1.183,1.114,2.699
-0.965,7.079,-7.993,-0.883,1.077,2.474
0.5,8.28,-9.808,-0.625,0.961,1.937
0.837,7.373,-10.934,-0.385,0.584,0.819
1.654,4.728,-10.991,-0.203,0.304,-0.6
0.746,5.138,-10.799,0.038,0.031,-1.571
0.202,5.6,-9.831,0.244,-0.515,-2.064
-1.201,5.242,-8.611,0.424,-1.03,-2.391
-2.432,4.611,-7.647,0.679,-1.355,-2.502
-3.156,2.23,-6.378,0.926,-1.464,-2.21
-3.94,-0.881,-5.272,1.223,-1.428,-1.563
-4.069,-4.207,-4.214,1.492,-1.079,-0.733
-4.817,-6.939,-3.499,1.934,-0.486,0.093
-4.081,-9.259,-2.164,2.296,0.302,0.845
-4.413,-10.466,-1.231,2.619,0.718,1.35
-4.107,-12.074,-0.23,2.696,1.188,1.585
-4.065,-12.831,0.433,2.66,1.361,1.485
-2.977,-13.716,0.807,2.249,1.213,1.145
-3.21,-14.504,0.691,1.649,0.822,0.594
-2.567,-14.92,0.518,0.873,0.466,-0.035
-2.526,-14.78,0.305,0.083,-0.014,-0.649
-2.536,-14.47,0.665,-0.685,-0.42,-1.159
-2.89,-13.868,1.039,-1.357,-0.794,-1.502
-3.197,-13.356,1.372,-1.893,-1.007,-1.596
-3.56,-12.706,1.701,-2.244,-1.032,-1.462
-4.204,-11.68,1.351,-2.478,-0.926,-1.154
-4.395,-10.347,0.666,-2.523,-0.628,-0.631
-5.038,-7.824,-0.262,-2.446,-0.045,0.145
-4.534,-3.766,-2.164,-2.359,0.864,1.234
-4.255,2.799,-5.26,-1.934,1.777,2.214
0.06,4.858,-6.334,-1.514,1.703,2.4
0.059,7.137,-8.653,-1.104,1.087,2.056
2.674,8.157,-10.022,-0.722,1.507,1.322
3.78,8.069,-10.404,-0.221,0.268,-0.001
3.861,5.429,-9.266,-0.003,-0.898,-1.489
-0.059,6.494,-9.887,0.298,-1.055,-2.228
0.048,5.946,-8.421,0.625,-0.833,-2.429
-2.238,4.816,-7.494,1.049,-1.796,-2.284
-3.826,2.079,-5.982,1.423,-1.481,-1.644
-4.722,-1.43,-4.44,1.881,-1.166,-0.573
-5.487,-4.995,-2.584,2.377,-0.902,0.545
-6.438,-8.192,-0.896,2.807,-0.256,1.42
-6.729,-10.7,0.749,3.003,0.314,1.951
-7.032,-12.172,1.505,3.029,0.856,2.038
-6.526,-13.297,1.867,2.797,1.297,1.697
-5.565,-14.053,2.01,2.287,1.438,1.053
-4.332,-14.398,1.465,1.571,1.187,0.336
-3.329,-14.722,0.893,0.805,0.745,-0.398
-2.594,-14.905,0.748,0.016,0.205,-1.071
-2.439,-14.931,0.806,-0.759,-0.345,-1.607
-2.434,-14.694,1.064,-1.423,-0.837,-1.933
-2.977,-14.122,1.381,-1.937,-1.198,-2.045
-3.568,-13.196,1.711,-2.272,-1.306,-1.881
-3.891,-11.565,1.872,-2.412,-1.034,-1.399
-3.982,-9.063,1.456,-2.315,-0.86,-0.623
-4.006,-6.362,0.409,-2.197,-0.341,0.393
-3.429,-2.112,-1.476,-2.087,0.178,1.595
-4.074,3.888,-4.868,-1.732,1.03,2.759
-1.255,5.984,-7.013,-1.446,1.488,2.961
-1.037,7.241,-9.566,-1.201,0.965,2.286
-0.405,8.66,-11.631,-0.802,1.411,1.184
1.165,8.599,-12.317,-0.254,1.376,-0.256
3.016,6.167,-11.336,0.11,0.352,-1.812
0.485,6.567,-11.33,0.466,-0.521,-2.623
0.429,6.117,-9.996,0.772,-0.139,-2.695
-0.226,4.865,-8.459,1.09,-0.917,-2.456
-1.766,2.543,-6.73,1.373,-1.208,-1.916
-2.648,-0.395,-4.69,1.666,-1.056,-1.135
-3.022,-3.287,-2.652,2.031,-0.768,-0.169
-3.585,-5.881,-0.731,2.406,-0.485,0.797
-3.925,-8.467,1.103,2.627,-0.315,1.655
-5.291,-10.387,1.987,2.726,-0.308,2.193
-6.013,-11.903,2.088,2.649,0.002,2.319
-6.589,-13.192,1.638,2.407,0.16,2.048
-6.365,-14.145,0.772,1.938,0.161,1.45
-6.201,-14.741,-0.095,1.291,0.205,0.624
-5.071,-14.958,-0.582,0.5,0.252,-0.215
-4.484,-14.768,-0.621,-0.333,0.066,-0.964
-3.634,-14.68,-0.146,-1.164,-0.19,-1.56
-3.723,-14.592,0.644,-1.911,-0.407,-1.937
-3.77,-14.396,1.364,-2.474,-0.768,-2.099
-4.318,-13.96,1.665,-2.819,-0.616,-1.988
-4.093,-12.824,1.509,-2.941,-0.254,-1.473
-3.835,-10.204,0.962,-2.834,0.271,-0.548
-2.996,-5.514,-0.33,-2.486,0.548,0.702
-2.842,0.541,-2.231,-2.065,1.016,2.121
-1.684,5.728,-4.27,-1.48,1.525,2.91
-0.039,8.455,-6.76,-1.063,1.27,2.814
0.746,9.742,-9.025,-0.694,1.26,2.092
1.911,9.656,-10.491,-0.337,1.089,0.807
2.953,8.34,-11.227,0.05,0.669,-0.864
2.819,7.194,-11.093,0.28,-0.335,-2.055
1.138,7.047,-9.883,0.649,-0.613,-2.562
0.031,6.196,-8.338,1.012,-1.22,-2.636
-1.609,3.675,-6.975,1.278,-1.393,-2.251
-2.668,0.494,-5.375,1.599,-1.314,-1.443
-3.55,-3.228,-3.819,1.958,-0.872,-0.417
-4.188,-6.676,-2.26,2.339,-0.584,0.579
-4.552,-9.43,-0.772,2.673,0.003,1.407
-4.986,-11.046,0.561,2.969,0.264,1.911
-5.136,-12.498,1.498,3.041,0.633,2.07
-5.09,-13.212,1.692,2.899,0.789,1.853
-4.537,-13.659,1.614,2.482,1.017,1.404
-4.17,-14.111,1.184,1.852,0.804,0.821
-3.556,-14.634,0.781,1.005,0.706,0.197
-3.363,-14.789,0.451,0.116,0.431,-0.446
-3.023,-15.198,0.914,-0.814,0.044,-1.021
-3.548,-15.347,1.429,-1.667,-0.505,-1.548
-3.802,-15.065,2.264,-2.389,-0.854,-1.939
-4.661,-14.384,2.777,-2.89,-1.141,-2.073
-4.916,-13.22,2.875,-3.083,-0.939,-1.84
-5.1,-10.809,2.237,-3.001,-0.828,-1.224
-5.162,-7.206,0.981,-2.672,-0.448,-0.147
-5.043,-1.705,-0.789,-2.1,-0.189,1.208
-4.762,4.175,-3.337,-1.553,0.835,2.247
-2.217,6.817,-5.787,-1.135,0.851,2.392
-1.031,8.706,-8.122,-0.743,1.273,1.99
1.146,9.24,-9.657,-0.468,1.259,1.245
2.311,7.642,-10.823,-0.321,1.022,-0.009
3.186,5.971,-10.764,-0.078,0.232,-1.326
1.268,6.637,-10.387,0.145,0.025,-1.99
0.554,6.412,-9.072,0.419,-0.593,-2.334
-1.304,5.553,-8.276,0.784,-1.066,-2.509
-2.303,3.448,-6.643,1.177,-1.1,-2.175
-2.975,0.174,-4.856,1.6,-1.345,-1.388
-3.939,-3.525,-3.177,2.046,-1.293,-0.422
-4.75,-6.581,-2.044,2.477,-1.008,0.529
-5.34,-8.973,-0.412,2.857,-0.417,1.352
-6.178,-10.504,0.362,3.071,-0.047,1.826
-6.658,-11.745,0.829,3.056,0.611,2.007
-6.579,-12.206,1.074,2.817,0.912,1.908
-6.377,-12.964,1.291,2.252,1.074,1.622
-6.07,-13.858,1.04,1.47,0.927,1.033
-5.342,-14.288,0.762,0.592,0.834,0.29
-5.058,-14.615,0.627,-0.323,0.395,-0.536
-4.892,-14.831,0.817,-1.228,-0.052,-1.367
-5.057,-14.751,0.89,-1.979,-0.364,-2.069
-4.795,-14.131,1.157,-2.601,-0.687,-2.418
-5.326,-13.124,1.147,-2.927,-0.715,-2.375
-5.069,-11.67,0.85,-2.922,-0.57,-1.93
-5.146,-9.783,0.183,-2.64,-0.376,-1.103
-5.068,-6.434,-0.9,-2.124,-0.171,0.007
-4.94,-1.337,-2.46,-1.388,0.536,1.44
-3.436,4.232,-4.301,-0.945,0.877,2.634
-2.896,6.252,-6.429,-0.632,0.846,2.726
-0.935,8.217,-8.321,-0.402,1.207,2.258
0.939,8.238,-10.035,-0.285,1.059,1.528
1.572,6.704,-11.055,-0.319,0.671,0.217
1.508,4.719,-11.217,-0.116,0.409,-1.216
1.247,5.562,-10.421,0.033,-0.04,-1.855
-0.526,5.31,-9.258,0.145,-0.701,-2.132
-2.213,5.012,-7.777,0.349,-0.986,-2.301
-2.859,3.252,-6.07,0.618,-1.215,-2.096
-3.897,0.713,-4.584,1.063,-1.577,-1.527
-4.431,-2.676,-3.18,1.645,-1.457,-0.673
-5.166,-5.671,-2.33,2.414,-1.231,0.145
-5.697,-8.385,-1.072,3.05,-0.536,0.869
-6.315,-10.335,-0.233,3.435,-0.189,1.294
-6.87,-12.1,0.48,3.333,0.505,1.399
-6.686,-12.901,0.626,2.881,1.12,1.203
-5.587,-13.75,1.253,2.078,1.421,0.846
-4.611,-14.122,1.188,1.094,1.02,0.256
-3.854,-14.063,0.889,0.136,0.819,-0.38
-2.777,-14.127,0.969,-0.663,0.278,-0.957
-3.104,-13.746,1.143,-1.321,-0.399,-1.49
-3.676,-13.032,1.154,-1.812,-0.891,-2.017
-3.723,-12.59,1.213,-2.134,-1.069,-2.307
-3.314,-12.282,0.898,-2.359,-1.289,-2.23
-3.685,-11.781,-0.237,-2.408,-1.183,-1.754
-2.994,-10.972,-1.2,-2.336,-0.721,-0.862
-2.616,-8.402,-2.751,-2.182,-0.512,0.592
-3.894,-1.179,-4.408,-1.743,0.242,2.438
-3.601,4.673,-5.005,-1.195,1.23,3.567
-2.591,6.941,-5.647,-0.872,1.067,3.216
-1.821,9.929,-7.589,-0.48,1.459,2.424
0.212,10.619,-8.414,-0.099,1.62,1.169
2.204,7.216,-8.696,0.008,0.815,-0.712
1.505,5.088,-9.52,0.02,-0.384,-2.184
0.518,5.81,-9.276,0.17,-0.391,-2.388
-0.715,4.966,-8.144,0.378,-1.364,-2.463
-3.138,3.757,-6.991,0.626,-1.641,-2.358
-4.314,1.462,-6.16,1.05,-1.4,-1.853
-4.819,-1.511,-4.829,1.59,-0.934,-1.094
-5.356,-3.925,-3.573,2.267,-0.355,-0.284
-5.528,-7.011,-1.78,2.742,0.36,0.511
-5.637,-8.962,-0.386,3.08,0.899,1.079
-5.48,-10.459,1.27,3.156,1.467,1.41
-4.826,-11.833,2.447,2.968,1.741,1.543
-4.15,-13.568,2.667,2.496,1.518,1.401
-3.203,-14.74,2.495,1.894,1.336,0.961
-2.329,-15.924,2.088,1.067,0.664,0.332
-1.671,-16.508,1.647,0.143,0.017,-0.389
-1.313,-16.583,1.689,-0.796,-0.614,-1.081
-1.707,-16.073,2.263,-1.699,-1.21,-1.628
-2.722,-15.469,2.94,-2.409,-1.436,-1.922
-2.929,-14.659,3.676,-2.845,-1.413,-1.815
-4.575,-13.019,3.356,-2.94,-1.525,-1.334
-4.839,-10.347,2.573,-2.811,-0.742,-0.4
-4.358,-5.104,0.445,-2.495,-0.223,0.896
-4.506,2.285,-2.938,-2.023,0.277,2.276
-2.78,6.468,-5.387,-1.497,1.212,2.836
-1.02,8.684,-7.694,-1.127,1.139,2.514
-0.539,10.063,-10.068,-0.744,1.286,1.61
0.633,8.992,-10.924,-0.331,1.19,0.213
1.895,5.986,-10.348,-0.041,0.433,-1.358
-0.122,5.667,-10.431,0.208,-0.613,-2.323
-0.674,5.306,-9.589,0.46,-0.497,-2.549
-1.693,3.977,-8.583,0.763,-1.337,-2.499
-3.105,1.953,-6.93,1.112,-1.227,-2.177
-3.124,-0.678,-5.446,1.464,-0.914,-1.479
-3.495,-3.978,-3.563,1.941,-0.844,-0.635
-4.103,-6.297,-2.236,2.444,-0.4,0.127
-4.391,-8.159,-0.119,2.859,0.305,0.734
-4.204,-9.779,0.876,2.941,0.501,1.222
-5.234,-11.26,1.895,2.879,0.91,1.365
-4.5,-12.189,1.842,2.498,1.445,1.339
-3.619,-13.589,2.044,1.948,1.518,1.146
-2.914,-14.654,1.459,1.25,1.147,0.769
-2.563,-15.073,1.127,0.572,0.893,0.191
-1.841,-15.099,1.059,-0.233,0.384,-0.416
-1.709,-14.794,0.963,-0.984,-0.121,-0.966
-1.72,-14.617,1.309,-1.714,-0.703,-1.38
-2.752,-14.382,1.096,-2.366,-1.191,-1.688
-3.702,-14.459,1.102,-2.793,-1.288,-1.877
-4.144,-13.699,0.622,-2.893,-0.98,-1.766
-4.424,-12.303,0.24,-2.77,-0.565,-1.263
-4.664,-9.09,-0.809,-2.404,0.027,-0.328
-3.496,-3.271,-2.092,-1.95,0.913,1.107
-2.558,3.64,-4.517,-1.498,1.248,2.423
-0.581,6.438,-6.312,-1.106,1.322,2.82
0.097,8.481,-8.656,-0.781,0.966,2.366
0.696,9.556,-10.388,-0.536,1.005,1.266
1.625,8.095,-11.064,-0.253,0.647,-0.376
1.73,5.332,-10.68,0.026,0.126,-1.87
0.349,5.179,-10.392,0.263,-0.337,-2.521
-0.266,4.632,-9.091,0.545,-0.456,-2.54
-0.778,2.479,-7.718,0.8,-1.045,-2.123
-2.036,0.075,-6.22,1.131,-1.446,-1.428
-2.633,-2.67,-4.411,1.495,-1.433,-0.481
-3.946,-5.062,-3.097,2.101,-1.153,0.391
-4.548,-7.542,-1.347,2.659,-0.556,1.181
-5.397,-9.301,0.013,3.145,-0.163,1.718
-5.899,-11.148,0.897,3.303,0.53,1.998
-6.199,-12.471,1.076,3.211,1.061,1.915
-5.552,-13.11,1.218,2.719,1.403,1.619
-4.812,-13.434,0.892,2.009,1.307,1.165
-4.143,-13.599,0.707,1.188,1.063,0.637
-3.693,-13.596,0.58,0.407,0.583,0.038
-3.47,-13.658,0.776,-0.354,-0.031,-0.599
-3.392,-14.151,1.132,-1.066,-0.639,-1.199
-3.753,-15.497,1.809,-1.699,-1.251,-1.756
-4.197,-16.174,2.282,-2.245,-1.496,-2.153
-4.395,-15.614,2.658,-2.718,-1.672,-2.102
-5.678,-13.619,2.413,-2.797,-1.186,-1.582
-5.229,-10.921,2.234,-2.801,-0.365,-0.703
-4.972,-5.953,0.608,-2.615,0.198,0.522
-4.372,0.416,-1.503,-2.254,1.083,2.017
-3.005,4.651,-2.937,-1.612,2.511,2.698
1.01,6.162,-4.64,-1.316,1.85,2.567
0.879,7.57,-7.337,-0.942,1.449,1.979
2.747,7.325,-8.633,-0.617,1.601,1.06
3.641,6.002,-9.189,-0.292,0.731,-0.402
3.074,5.668,-10.066,-0.156,-1.022,-1.498
0.124,6.362,-9.989,0.148,-1.023,-2.084
-0.345,5.626,-8.535,0.428,-1.611,-2.329
-2.864,4.561,-7.465,0.762,-2.143,-2.359
-4.111,1.814,-6.137,1.033,-2.035,-1.988
-5.122,-1.291,-5.016,1.442,-1.526,-1.202
-5.256,-4.741,-3.79,1.82,-1.04,-0.22
-6.092,-7.268,-2.853,2.326,-0.488,0.62
-6.17,-9.26,-1.536,2.735,0.142,1.266
-6.677,-10.479,-0.478,3.042,0.647,1.644
-6.248,-11.628,0.64,3.029,1.131,1.678
-6.051,-12.209,1.144,2.832,1.319,1.374
-4.686,-12.681,1.475,2.319,1.395,0.949
-4.054,-13.209,1.251,1.626,1.007,0.423
-3.291,-13.583,0.858,0.824,0.664,-0.129
-3.277,-13.65,0.467,0.005,0.083,-0.706
-2.953,-13.987,0.795,-0.81,-0.344,-1.194
-3.655,-14.137,1.149,-1.53,-0.822,-1.596
-4.002,-14.075,1.635,-2.116,-1.089,-1.918
-4.588,-13.567,1.917,-2.493,-1.087,-2.071
-4.324,-12.659,2.001,-2.636,-0.987,-1.87
-4.701,-10.35,1.029,-2.489,-0.919,-1.275
-4.252,-7.828,-0.004,-2.277,-0.247,-0.278
-3.185,-3.627,-1.389,-2.079,0.015,1.068
-3.833,3.108,-3.887,-1.769,0.303,2.548
-2.718,5.969,-5.349,-1.408,1.471,3.156
-0.551,7.371,-7.082,-1.175,1.423,2.77
-0.332,8.855,-9.1,-0.869,0.994,1.751
-0.241,8.601,-10.406,-0.453,1.276,0.357
1.944,5.071,-9.944,-0.112,0.807,-1.239
0.299,5.068,-10.635,0.181,-0.643,-2.206
-1.31,4.705,-9.779,0.474,-0.487,-2.437
-1.456,3.71,-8.608,0.812,-0.775,-2.311
-2.144,2.102,-7.281,1.153,-1.403,-1.96
-3.522,0.446,-6.328,1.538,-1.478,-1.504
-3.336,-1.958,-4.524,1.885,-1.187,-0.843
-4.143,-3.897,-3.224,2.269,-1.171,-0.105
-5.027,-5.913,-1.378,2.604,-0.707,0.609
-5.762,-7.674,0.085,2.857,-0.089,1.221
-5.758,-9.747,1.594,2.882,0.386,1.71
-6.373,-11.166,1.9,2.768,0.621,1.837
-6.028,-12.434,2.028,2.476,0.958,1.615
-5.322,-13.565,1.611,1.975,0.945,1.152
-4.84,-14.322,0.922,1.318,0.643,0.446
-4.671,-14.277,0.258,0.597,0.462,-0.328
-4.013,-14.24,0.337,-0.204,0.19,-0.979
-4.021,-14.162,0.797,-0.977,-0.235,-1.491
-4.159,-14.057,1.422,-1.681,-0.627,-1.901
-4.498,-13.626,2.128,-2.229,-0.848,-2.066
-4.455,-12.766,2.427,-2.535,-0.937,-1.914
-4.699,-11.26,2.003,-2.561,-1.078,-1.519
-4.901,-9.346,1.121,-2.441,-0.643,-0.799
-4.448,-6.601,-0.276,-2.255,-0.08,0.208
-3.923,-2.664,-2.15,-1.981,0.599,1.428
-3.822,1.971,-4.311,-1.722,0.887,2.388
-2.89,4.674,-5.591,-1.388,2.008,2.694
-0.537,6.544,-7.317,-1.114,1.484,2.281
-0.662,7.631,-9.301,-0.779,0.977,1.454
-0.087,7.594,-10.26,-0.417,0.799,0.12
0.673,6.419,-10.402,-0.009,0.485,-1.263
0.256,5.821,-10.432,0.227,-0.793,-2.163
-1.955,5.419,-9.813,0.525,-0.874,-2.548
-2.018,3.838,-8.076,0.761,-0.876,-2.547
-2.736,1.804,-6.681,1.041,-1.235,-2.161
-3.257,-1.007,-5.154,1.215,-1.186,-1.45
-3.859,-3.492,-4.015,1.573,-0.884,-0.586
-3.963,-5.99,-2.614,1.933,-0.394,0.294
-4.551,-7.237,-1.539,2.395,-0.039,1.027
-4.932,-8.901,-0.368,2.685,0.407,1.593
-5.779,-10.021,0.477,2.97,0.712,1.83
-5.657,-10.85,1.138,2.957,1.143,1.823
-5.466,-11.673,1.451,2.728,1.12,1.663
-5.197,-12.931,1.214,2.199,1.036,1.386
-4.877,-13.867,0.894,1.487,0.703,0.884
-4.455,-14.39,0.664,0.58,0.338,0.193
-3.971,-14.891,0.813,-0.398,-0.135,-0.592
-3.629,-15.357,1.276,-1.376,-0.555,-1.358
-3.611,-15.417,2.155,-2.277,-0.979,-2.059
-4.173,-15.01,2.696,-2.946,-1.17,-2.495
-4.456,-14.358,2.888,-3.292,-1.221,-2.459
-5.055,-12.741,2.316,-3.264,-0.818,-1.936
-5.006,-9.737,1.009,-2.896,-0.515,-1.009
-4.998,-5.796,-0.586,-2.317,-0.022,0.265
-3.834,-0.257,-1.966,-1.89,0.5,1.91
-3.846,5.109,-4.372,-1.337,1.003,2.929
-1.183,6.935,-6.105,-1.036,1.305,3.0
-0.822,7.974,-8.035,-0.816,0.983,2.412
0.72,8.177,-9.337,-0.634,1.089,1.384
0.736,6.782,-10.658,-0.266,0.634,-0.207
1.701,5.1,-10.25,-0.051,0.069,-1.467
-0.745,5.768,-10.078,0.309,-0.843,-2.135
-1.502,5.165,-8.82,0.588,-1.022,-2.422
-3.289,3.79,-7.67,0.948,-1.482,-2.463
-3.754,1.436,-6.28,1.308,-1.435,-2.14
-4.495,-1.208,-4.895,1.762,-1.238,-1.532
-4.381,-4.666,-3.125,2.136,-0.77,-0.687
-4.685,-7.447,-1.693,2.521,-0.066,0.191
-4.557,-9.576,-0.422,2.688,0.56,0.9
-4.733,-11.067,0.814,2.717,0.996,1.367
-4.683,-12.223,1.094,2.452,1.217,1.51
-4.516,-12.213,1.089,2.079,1.415,1.379
-3.814,-12.303,0.92,1.57,1.188,1.101
-3.221,-12.994,0.607,1.054,0.691,0.751
-2.939,-13.463,-0.226,0.481,0.146,0.201
-2.554,-13.992,-0.378,-0.138,-0.124,-0.363
-2.624,-14.556,-0.39,-0.754,-0.592,-0.92
-2.778,-14.962,-0.066,-1.381,-0.795,-1.442
-3.342,-14.529,0.496,-1.967,-0.921,-1.869
-3.426,-13.878,1.438,-2.39,-0.905,-1.943
-4.211,-12.354,1.509,-2.496,-0.891,-1.629
-4.337,-10.315,0.973,-2.349,-0.467,-1.033
-3.918,-7.245,-0.156,-2.001,-0.248,-0.236
-3.843,-4.408,-1.9,-1.578,-0.013,0.814
-3.321,-1.038,-3.699,-1.3,0.362,2.021
-4.47,3.955,-6.712,-0.991,0.69,3.1
-2.583,5.542,-7.753,-0.771,1.426,3.232
-2.431,6.141,-9.298,-0.681,1.365,2.524
-0.64,7.167,-10.41,-0.458,1.534,1.449
-0.223,7.619,-10.98,-0.044,1.148,-0.061
2.279,5.615,-9.219,0.198,0.395,-1.781
0.064,5.662,-9.105,0.326,-1.285,-2.712
-0.96,4.845,-7.518,0.564,-1.543,-2.757
-2.743,3.427,-6.19,0.819,-1.915,-2.488
-4.151,0.527,-4.625,1.151,-1.739,-1.8
-5.165,-2.861,-3.44,1.56,-1.283,-0.737
-5.694,-5.965,-2.054,2.077,-0.465,0.349
-6.336,-8.31,-1.09,2.54,0.085,1.153
-6.597,-10.656,0.388,2.71,0.537,1.718
-6.691,-11.982,0.822,2.653,0.737,1.923
-6.598,-13.114,0.81,2.365,1.007,1.697
-5.601,-13.987,0.461,1.869,0.907,1.168
-4.561,-14.686,-0.02,1.209,0.659,0.441
-4.103,-14.862,-0.654,0.525,0.363,-0.396
-3.517,-15.159,-0.567,-0.223,-0.018,-1.275
-3.401,-15.356,-0.04,-1.022,-0.476,-1.99
-3.428,-15.056,0.711,-1.712,-0.816,-2.43
-3.856,-13.962,1.166,-2.226,-0.912,-2.368
-3.565,-12.831,1.334,-2.539,-0.974,-1.873
-4.347,-10.833,0.785,-2.578,-0.703,-0.94
-4.117,-7.535,-0.268,-2.379,0.154,0.319
-3.562,-2.364,-1.837,-2.149,0.83,1.808
-3.157,3.174,-4.17,-1.677,1.566,2.879
-0.93,5.988,-5.933,-1.306,1.595,3.054
-0.383,8.036,-8.444,-0.965,1.232,2.543
1.244,8.459,-10.06,-0.628,1.078,1.695
1.446,7.063,-10.975,-0.216,0.333,0.348
2.117,5.243,-10.348,-0.038,-0.471,-1.109
-0.394,5.577,-10.317,0.212,-0.795,-2.004
-0.188,5.264,-8.571,0.436,-0.812,-2.425
-2.217,4.74,-7.539,0.724,-1.675,-2.698
-3.129,3.064,-5.969,0.999,-1.562,-2.583
-3.934,0.251,-5.059,1.432,-1.654,-2.026
-4.149,-2.898,-3.055,2.01,-1.224,-1.217
-4.443,-6.081,-1.749,2.467,-0.852,-0.309
-4.677,-8.948,0.144,2.826,0.023,0.517
-4.537,-10.942,1.104,3.008,0.51,1.164
-4.741,-12.982,2.25,2.925,1.099,1.482
-4.381,-14.508,2.45,2.503,1.316,1.352
-3.68,-14.983,2.374,1.924,1.361,0.838
-2.719,-15.174,1.967,1.152,0.85,0.175
-2.542,-15.61,1.753,0.36,0.421,-0.577
-1.707,-15.642,1.545,-0.555,-0.169,-1.287
-1.945,-15.736,1.565,-1.408,-0.759,-1.772
-2.212,-15.845,1.977,-2.069,-1.036,-2.005
-2.61,-15.179,2.255,-2.565,-1.187,-1.842
-2.761,-13.429,2.122,-2.847,-1.037,-1.274
-3.401,-10.733,1.415,-2.808,-0.557,-0.265
-2.803,-6.523,0.36,-2.574,0.293,1.178
-2.785,0.207,-1.617,-2.232,0.695,2.747
-3.05,4.044,-3.606,-1.654,1.729,3.385
-0.632,5.908,-5.402,-1.242,2.13,2.93
0.727,7.343,-7.685,-0.849,1.75,2.121
1.746,7.055,-9.19,-0.504,1.282,0.907
2.408,4.453,-10.011,-0.214,0.932,-0.612
3.462,4.146,-10.559,-0.077,-0.135,-1.619
1.428,5.047,-10.552,0.244,-0.879,-1.912
0.27,4.812,-9.619,0.514,-1.114,-2.108
-1.144,4.188,-8.54,0.832,-1.491,-2.205
-2.148,2.705,-7.436,1.149,-1.747,-2.014
-3.288,0.366,-5.851,1.505,-1.658,-1.57
-3.746,-2.324,-4.029,1.832,-1.321,-0.876
-4.347,-4.647,-2.3,2.182,-0.751,-0.122
-4.734,-6.812,-0.508,2.474,-0.244,0.64
-5.311,-8.587,1.007,2.762,0.195,1.221
-5.745,-10.039,2.163,2.943,0.513,1.587
-6.386,-11.6,2.492,2.99,0.68,1.634
-6.218,-13.075,2.718,2.8,0.65,1.371
-6.0,-14.117,2.127,2.353,0.66,0.787
-5.105,-14.853,1.882,1.621,0.713,0.094
-3.95,-15.065,1.676,0.698,0.598,-0.566
-2.877,-15.299,1.999,-0.342,0.265,-1.113
-2.581,-15.314,2.656,-1.365,-0.253,-1.578
-2.613,-15.282,3.416,-2.238,-0.786,-1.818
-3.002,-14.961,3.936,-2.867,-1.119,-1.853
-3.461,-14.021,3.639,-3.171,-1.223,-1.616
-3.917,-11.924,2.763,-3.156,-0.82,-0.982
-3.36,-8.345,1.382,-2.979,-0.289,0.194
-3.426,-1.782,-1.05,-2.564,0.202,1.701
-3.287,4.095,-3.243,-1.914,1.173,2.836
-1.648,6.694,-5.106,-1.424,1.255,2.914
-0.938,8.638,-7.547,-1.048,1.117,2.306
0.188,8.673,-9.188,-0.597,1.126,1.283
1.256,6.578,-9.761,-0.249,0.707,-0.266
1.825,4.827,-9.963,-0.031,-0.53,-1.684
-0.171,5.238,-9.855,0.258,-1.11,-2.269
-0.977,4.524,-8.38,0.552,-1.577,-2.448
-3.218,4.268,-7.217,0.927,-2.098,-2.587
