ax,ay,az,gx,gy,gz
-2.596,-6.165,-1.478,-0.409,0.632,-1.236
-2.413,-7.07,-1.783,-0.338,0.352,-0.668
-2.627,-7.698,-2.057,-0.3,0.165,-0.281
-2.627,-8.254,-2.107,-0.32,0.06,-0.084
-2.947,-8.233,-2.083,-0.328,-0.01,-0.034
-2.73,-8.127,-2.05,-0.345,-0.045,-0.001
-2.963,-8.041,-2.34,-0.336,-0.224,0.042
-3.292,-8.13,-2.678,-0.327,-0.308,0.067
-3.803,-8.262,-3.069,-0.302,-0.324,0.053
-4.097,-8.374,-3.419,-0.264,-0.3,0.006
-4.393,-8.346,-3.656,-0.207,-0.17,-0.086
-4.284,-8.01,-3.571,-0.131,-0.033,-0.18
-4.094,-7.558,-3.359,-0.039,0.023,-0.21
-3.894,-7.316,-3.239,0.051,0.049,-0.157
-3.844,-7.254,-3.233,0.122,0.076,-0.055
-3.98,-7.237,-3.233,0.199,0.138,0.047
-4.136,-7.03,-2.972,0.283,0.24,0.153
-4.38,-6.626,-2.833,0.38,0.356,0.251
-4.504,-6.642,-2.303,0.539,0.636,0.362
-4.209,-7.75,-1.84,0.668,0.88,0.491
-3.437,-10.189,-1.48,0.602,0.865,0.522
-2.442,-13.035,-1.414,0.238,0.784,0.28
-1.167,-15.356,-0.962,-0.401,0.585,-0.164
-0.313,-16.614,-0.656,-1.204,0.11,-0.624
-0.145,-16.689,-0.329,-1.999,-0.433,-0.983
-0.753,-14.887,-0.145,-2.537,-0.575,-0.995
-2.122,-12.194,-0.308,-2.726,-0.692,-0.533
-3.516,-9.429,-1.056,-2.587,0.183,0.408
-3.253,-4.597,-2.211,-2.226,0.714,1.592
-3.736,2.475,-4.0,-1.567,1.19,2.726
-1.673,5.351,-5.149,-1.064,1.41,2.919
-0.833,7.182,-7.277,-0.695,1.243,2.415
0.945,8.537,-8.648,-0.363,0.777,1.505
0.967,7.63,-9.7,-0.121,0.113,0.1
1.441,5.073,-9.892,-0.126,-0.299,-1.564
-0.238,5.594,-10.448,-0.003,-0.624,-2.47
-0.345,5.742,-9.026,0.287,-0.653,-2.809
-1.868,5.169,-8.157,0.696,-1.262,-2.864
-2.862,2.621,-6.905,1.131,-1.095,-2.468
-3.144,-0.786,-5.327,1.749,-0.909,-1.665
-3.525,-4.296,-3.302,2.351,-0.542,-0.709
-3.786,-7.239,-1.864,2.871,0.096,0.251
-3.95,-9.998,0.23,3.233,0.919,1.018
-3.645,-11.072,1.743,3.375,1.589,1.508
-3.635,-12.609,2.755,3.177,2.048,1.669
-3.102,-14.135,3.002,2.692,2.038,1.492
-2.724,-15.347,2.95,1.944,1.803,1.05
-1.947,-15.849,2.366,0.991,1.219,0.464
-1.666,-16.287,1.932,0.061,0.552,-0.178
-1.369,-16.147,1.831,-0.847,-0.198,-0.76
-2.03,-15.177,2.04,-1.636,-0.785,-1.244
-2.65,-14.237,2.562,-2.241,-1.214,-1.536
-3.493,-13.385,2.722,-2.606,-1.503,-1.587
-4.721,-12.22,2.437,-2.761,-1.424,-1.414
-5.291,-10.669,1.401,-2.695,-1.201,-0.997
-5.624,-8.479,-0.042,-2.494,-0.462,-0.3
-4.567,-4.757,-1.981,-2.295,0.185,0.792
-4.508,1.579,-4.736,-1.876,0.735,1.955
-1.613,4.479,-6.244,-1.488,1.352,2.393
-0.704,6.528,-7.973,-1.176,0.848,1.989
0.331,8.389,-9.491,-0.822,0.857,1.084
0.994,8.82,-10.325,-0.332,0.69,-0.333
2.184,5.822,-9.954,-0.063,0.172,-1.836
0.109,5.768,-10.14,0.233,-0.615,-2.666
-0.524,5.379,-9.72,0.605,-0.252,-2.62
-1.168,3.351,-8.134,1.046,-0.759,-2.106
-2.781,0.743,-6.647,1.574,-0.95,-1.228
-4.15,-1.863,-4.627,2.177,-0.578,-0.226
-5.175,-5.253,-2.309,2.82,-0.15,0.758
-6.167,-7.724,0.366,3.313,0.555,1.424
-6.435,-9.349,1.914,3.512,1.283,1.828
-6.43,-10.947,3.384,3.426,1.912,1.934
-5.903,-12.448,4.219,3.079,2.217,1.798
-4.762,-13.214,4.205,2.457,2.267,1.479
-3.316,-14.421,3.846,1.677,1.821,1.107
-2.667,-15.28,3.294,0.902,1.073,0.606
-2.066,-15.595,2.832,0.084,0.278,0.029
-2.168,-15.58,2.579,-0.705,-0.571,-0.609
-2.745,-15.476,2.82,-1.418,-1.213,-1.188
-3.656,-15.035,3.263,-2.022,-1.778,-1.66
-4.783,-14.339,3.745,-2.511,-2.047,-1.936
-5.912,-13.72,3.709,-2.834,-2.165,-2.005
-6.453,-12.608,3.081,-2.946,-1.765,-1.764
-7.025,-10.661,1.737,-2.913,-1.222,-1.173
-5.913,-7.315,-0.048,-2.793,-0.143,-0.06
-4.562,-0.342,-2.564,-2.452,0.366,1.418
-2.617,3.838,-4.284,-1.933,1.418,2.311
-0.795,6.213,-6.309,-1.496,1.038,2.251
1.442,8.205,-8.133,-1.065,1.257,1.803
2.443,9.091,-9.049,-0.535,0.419,0.638
2.12,6.659,-9.127,-0.167,-0.063,-1.143
0.962,6.43,-9.358,0.021,-0.885,-2.392
-0.184,6.649,-8.692,0.285,-0.842,-2.674
-1.914,4.819,-7.342,0.669,-1.582,-2.503
-4.032,2.094,-6.233,1.183,-1.458,-1.85
-4.715,-2.097,-4.677,1.799,-1.1,-0.737
-5.985,-6.094,-2.96,2.504,-0.771,0.421
-6.883,-9.016,-1.169,3.108,0.097,1.307
-7.05,-10.535,0.559,3.472,0.981,1.8
-7.206,-11.643,1.95,3.524,1.673,1.961
-6.69,-12.051,2.865,3.316,2.159,1.795
-5.392,-12.6,3.081,2.845,2.105,1.435
-4.443,-13.702,2.974,2.211,1.703,0.987
-3.641,-14.391,2.278,1.434,1.117,0.4
-2.959,-14.808,1.731,0.554,0.435,-0.282
-2.842,-15.484,1.762,-0.329,-0.297,-0.999
-3.073,-15.678,2.258,-1.197,-0.939,-1.688
-3.698,-15.729,3.151,-1.99,-1.533,-2.234
-4.378,-15.534,4.189,-2.653,-1.876,-2.579
-5.003,-14.742,4.613,-3.104,-2.185,-2.451
-5.697,-12.733,3.806,-3.219,-1.758,-1.78
-4.95,-9.845,2.516,-3.145,-0.941,-0.571
-3.672,-2.813,-0.118,-2.807,-0.045,1.172
-2.985,3.804,-2.902,-2.205,0.369,2.588
-0.892,6.54,-5.257,-1.628,1.119,2.782
0.78,8.855,-7.715,-1.173,1.122,2.308
1.713,10.104,-9.523,-0.681,0.727,1.301
1.632,8.017,-10.157,-0.3,-0.044,-0.401
1.54,6.043,-10.116,0.018,-0.456,-1.908
-0.565,6.541,-10.141,0.396,-1.042,-2.437
-1.696,5.041,-8.831,0.827,-1.429,-2.489
-3.696,3.175,-7.148,1.267,-1.551,-2.3
-4.266,-0.058,-5.327,1.685,-1.131,-1.661
-4.869,-3.993,-3.319,2.114,-0.772,-0.736
-5.237,-6.665,-1.558,2.507,-0.185,0.069
-5.301,-8.096,0.432,2.797,0.735,0.776
-5.178,-9.543,1.612,2.918,1.231,1.429
-6.126,-10.726,2.618,2.993,1.622,1.794
-5.761,-11.51,2.809,2.8,2.097,1.856
-5.086,-13.151,3.227,2.43,1.999,1.789
-5.016,-14.46,2.842,1.871,1.433,1.35
-4.525,-15.11,2.469,1.175,1.027,0.615
-3.739,-15.172,2.248,0.335,0.424,-0.221
-3.725,-15.213,2.536,-0.509,-0.303,-1.004
-3.81,-14.776,3.005,-1.353,-1.0,-1.685
-4.301,-14.355,3.597,-2.065,-1.58,-2.115
-4.693,-14.152,4.368,-2.624,-2.016,-2.246
-5.34,-13.367,4.173,-2.984,-2.065,-2.067
-5.475,-11.482,3.196,-3.058,-1.788,-1.475
-5.03,-8.673,2.008,-2.963,-0.878,-0.302
-4.314,-2.48,-0.632,-2.691,-0.461,1.315
-3.918,3.796,-2.959,-2.16,0.469,2.696
-3.062,6.337,-5.46,-1.628,0.445,2.837
-1.999,8.357,-7.582,-1.187,0.995,2.414
-0.9,9.374,-9.387,-0.672,0.707,1.436
-0.495,7.133,-9.502,-0.267,0.627,-0.134
-0.189,4.949,-9.9,0.007,-0.02,-1.671
-0.508,5.424,-9.178,0.306,0.033,-2.137
-1.358,4.798,-8.434,0.643,-0.714,-2.233
-2.893,3.378,-7.124,1.007,-1.12,-2.072
-3.753,1.049,-6.06,1.486,-1.139,-1.615
-4.697,-1.982,-4.195,2.039,-0.995,-0.993
-5.269,-4.618,-2.442,2.656,-0.547,-0.24
-5.859,-6.822,-0.032,3.176,0.047,0.414
-6.19,-8.836,1.783,3.494,0.908,0.884
-6.323,-10.015,3.565,3.537,1.527,1.204
-5.942,-11.384,4.782,3.294,1.985,1.396
-5.401,-12.664,5.366,2.757,1.879,1.262
-4.695,-13.842,5.223,2.024,1.612,0.932
-3.781,-14.515,4.747,1.145,0.973,0.404
-3.059,-15.052,4.346,0.219,0.371,-0.209
-2.733,-14.752,3.72,-0.708,-0.37,-0.813
-2.856,-14.593,3.86,-1.573,-0.996,-1.309
-3.543,-14.235,3.937,-2.259,-1.521,-1.685
-4.2,-14.0,4.257,-2.75,-1.873,-1.927
-4.871,-13.681,4.213,-3.028,-2.028,-1.939
-5.372,-12.973,3.717,-3.123,-1.955,-1.651
-5.157,-11.105,2.415,-3.011,-1.169,-0.871
-3.874,-7.257,0.8,-2.865,-0.308,0.522
-3.243,1.826,-2.228,-2.516,0.413,2.152
-1.939,5.154,-4.359,-2.019,0.999,2.87
-0.812,8.308,-6.844,-1.515,1.069,2.466
-0.286,10.758,-8.663,-1.059,1.132,1.502
0.071,11.306,-9.86,-0.515,0.83,-0.076
0.472,6.0,-9.52,-0.065,0.007,-1.74
-0.781,5.601,-9.3,0.294,-0.843,-2.569
-2.233,4.27,-8.605,0.671,-1.017,-2.433
-2.992,1.6,-6.981,1.068,-1.484,-1.985
-4.361,-1.212,-5.891,1.488,-1.65,-1.349
-5.52,-4.105,-4.184,1.967,-0.954,-0.681
-5.601,-6.628,-2.886,2.297,-0.071,-0.005
-5.587,-8.206,-1.029,2.541,0.821,0.549
-5.447,-8.846,-0.231,2.658,1.414,0.982
-5.522,-9.951,1.211,2.634,1.919,1.294
-5.035,-10.748,1.815,2.406,2.157,1.486
-4.499,-11.808,2.299,2.108,2.168,1.436
-3.575,-13.409,2.225,1.68,1.773,1.192
-2.954,-14.911,2.181,1.141,1.249,0.645
-2.205,-15.821,1.909,0.46,0.628,-0.084
-1.762,-16.05,1.993,-0.306,-0.112,-0.904
-2.127,-16.041,2.267,-1.065,-0.91,-1.572
-2.649,-15.482,2.796,-1.74,-1.405,-2.045
-3.438,-14.882,2.909,-2.285,-1.759,-2.193
-3.988,-14.083,2.779,-2.655,-1.803,-1.926
-4.922,-12.674,1.863,-2.79,-1.296,-1.287
-4.02,-9.562,0.751,-2.813,-0.376,-0.212
-3.387,-3.307,-1.43,-2.644,0.318,1.335
-2.342,2.872,-3.143,-2.163,1.254,2.49
-0.098,5.638,-4.951,-1.712,1.325,2.614
0.923,8.345,-7.272,-1.258,1.009,2.136
1.534,9.31,-8.874,-0.721,0.722,1.059
1.688,7.139,-9.466,-0.296,0.011,-0.577
1.311,4.74,-9.851,-0.077,-0.784,-1.874
-1.058,4.956,-9.986,0.197,-0.916,-2.371
-1.404,3.549,-8.858,0.438,-0.977,-2.43
-2.87,2.251,-8.19,0.668,-1.388,-2.209
-3.45,-0.251,-7.295,0.956,-1.161,-1.714
-3.737,-2.967,-6.361,1.275,-1.057,-1.061
-4.045,-5.145,-5.527,1.648,-0.783,-0.382
-4.74,-6.825,-4.174,2.114,-0.154,0.214
-4.699,-8.524,-2.504,2.532,0.578,0.741
-5.166,-9.176,-0.895,2.86,1.104,1.081
-4.777,-10.479,1.0,2.933,1.843,1.242
-3.741,-11.55,2.448,2.764,2.056,1.275
-2.574,-12.704,2.807,2.31,1.75,1.146
-1.801,-14.363,2.727,1.66,1.281,0.747
-0.631,-16.167,2.598,0.771,0.76,0.135
-0.157,-16.825,2.279,-0.171,-0.039,-0.646
-0.375,-18.129,2.95,-1.164,-0.818,-1.422
-0.974,-18.303,3.931,-2.06,-1.27,-1.999
-1.824,-17.071,4.307,-2.788,-1.583,-2.033
-2.703,-14.937,4.047,-3.187,-1.273,-1.465
-3.861,-11.438,2.905,-3.24,-0.7,-0.391
-3.424,-4.892,1.082,-3.006,0.113,1.075
-4.436,3.308,-2.293,-2.386,0.75,2.52
-1.489,6.339,-4.469,-1.805,1.331,2.779
-0.626,8.561,-7.286,-1.207,1.419,2.284
2.072,9.159,-8.922,-0.705,1.102,1.514
2.114,7.724,-10.363,-0.292,0.596,0.164
4.079,4.597,-9.782,-0.155,0.161,-1.443
1.466,5.495,-10.136,0.099,-0.454,-2.176
1.102,5.182,-8.815,0.266,-1.076,-2.386
-1.554,4.481,-8.237,0.542,-1.507,-2.53
-2.31,2.697,-7.417,0.882,-1.411,-2.217
-3.231,-0.421,-6.481,1.345,-1.445,-1.508
-3.79,-3.331,-5.338,1.866,-1.298,-0.601
-5.255,-5.258,-3.902,2.526,-0.568,0.193
-5.655,-7.671,-1.959,2.926,0.183,0.981
-6.593,-9.551,0.394,3.278,0.871,1.484
-6.537,-11.04,1.941,3.23,1.457,1.773
-6.043,-12.87,3.546,2.887,1.858,1.725
-4.436,-14.634,3.858,2.186,1.536,1.424
-3.187,-15.158,3.347,1.403,0.928,0.776
-2.114,-15.931,2.299,0.505,0.173,0.047
-2.006,-16.034,1.565,-0.294,-0.482,-0.8
-1.793,-15.668,1.251,-1.046,-0.954,-1.516
-2.52,-15.303,1.148,-1.712,-1.287,-1.938
-3.375,-15.121,1.901,-2.175,-1.239,-2.033
-3.663,-14.124,2.173,-2.526,-1.122,-1.827
-4.501,-12.74,1.928,-2.692,-0.894,-1.264
-4.36,-10.422,1.101,-2.75,-0.334,-0.45
-4.704,-6.169,-0.698,-2.538,0.125,0.567
-3.37,-0.267,-3.084,-2.259,0.999,1.738
-1.865,4.17,-5.237,-1.817,1.289,2.453
-0.154,6.121,-7.291,-1.414,0.909,2.428
0.033,7.323,-9.278,-0.922,1.008,1.91
2.165,6.68,-9.741,-0.514,0.941,0.991
1.813,4.984,-10.034,-0.179,0.161,-0.425
0.99,4.197,-10.015,0.049,-0.366,-1.62
-0.196,4.495,-9.75,0.235,-0.158,-2.242
-0.416,4.289,-8.856,0.44,-0.714,-2.503
-1.98,3.28,-8.349,0.658,-1.084,-2.415
-2.512,1.151,-7.077,0.981,-1.094,-1.877
-3.068,-1.123,-5.961,1.338,-0.877,-1.023
-3.296,-3.874,-4.243,1.801,-0.667,-0.024
-4.373,-6.447,-3.007,2.293,-0.364,0.934
-4.88,-8.425,-1.315,2.71,0.232,1.642
-5.504,-10.335,-0.387,2.907,0.595,2.05
-5.679,-12.478,0.54,2.867,1.072,2.11
-5.352,-13.392,0.799,2.587,1.261,1.764
-4.253,-14.412,1.012,2.032,1.284,1.153
-3.042,-15.192,0.855,1.319,0.962,0.441
-2.143,-15.365,0.66,0.557,0.584,-0.298
-1.848,-15.672,1.04,-0.2,-0.123,-1.083
-1.658,-16.041,1.643,-0.9,-0.66,-1.821
-1.808,-16.443,2.356,-1.571,-1.278,-2.33
-2.462,-16.488,3.094,-2.067,-1.586,-2.477
-3.148,-15.886,3.12,-2.443,-1.683,-2.062
-3.439,-13.567,2.32,-2.66,-0.961,-1.088
-3.067,-8.184,0.807,-2.788,-0.357,0.528
-3.722,1.553,-2.251,-2.468,0.578,2.291
-1.4,4.938,-4.487,-2.05,1.256,3.026
-0.879,7.986,-6.958,-1.612,1.191,2.615
1.524,9.375,-8.804,-1.117,1.515,1.986
2.226,8.005,-9.996,-0.581,0.738,0.791
3.318,3.17,-9.659,-0.318,-0.05,-0.888
0.813,4.539,-10.117,-0.142,-0.883,-1.943
0.316,5.151,-9.511,0.126,-0.654,-2.251
-1.919,4.684,-8.506,0.346,-1.684,-2.527
-3.423,3.355,-7.738,0.655,-1.342,-2.538
-4.015,0.961,-6.597,1.008,-1.183,-1.974
-4.06,-2.46,-4.983,1.505,-0.785,-1.075
-4.19,-5.604,-3.691,1.954,-0.704,-0.115
-4.694,-8.109,-2.298,2.43,-0.043,0.688
-4.857,-9.76,-0.824,2.76,0.314,1.27
-4.918,-11.424,0.395,2.866,0.761,1.52
-4.931,-12.657,0.766,2.743,1.137,1.505
-4.22,-13.809,1.325,2.41,1.409,1.214
-3.27,-14.143,1.102,1.866,1.263,0.72
-2.232,-14.835,1.092,1.166,1.066,0.137
-1.711,-15.156,1.032,0.434,0.595,-0.489
-0.965,-15.32,1.542,-0.372,0.012,-1.077
-1.403,-15.454,2.107,-1.11,-0.652,-1.524
-1.624,-15.682,2.495,-1.773,-1.139,-1.729
-2.828,-15.55,2.698,-2.271,-1.335,-1.687
-3.299,-14.508,2.351,-2.6,-1.125,-1.235
-4.151,-11.621,1.247,-2.726,-0.686,-0.299
-4.312,-5.808,-0.797,-2.598,-0.168,1.024
-4.294,1.449,-2.791,-2.119,0.793,2.27
-1.721,5.156,-4.874,-1.646,1.169,2.7
-0.857,7.79,-7.105,-1.164,1.003,2.424
1.121,8.44,-8.754,-0.699,1.086,1.764
1.856,6.569,-9.461,-0.329,0.744,0.579
2.511,3.593,-9.682,-0.227,-0.229,-0.817
0.006,4.202,-9.819,-0.069,-0.795,-1.676
-0.735,4.445,-9.049,0.16,-0.773,-2.092
-2.722,4.01,-8.335,0.358,-1.394,-2.41
-3.39,2.32,-7.269,0.619,-1.358,-2.431
-4.406,0.271,-6.463,0.947,-1.164,-2.051
-3.973,-2.838,-4.901,1.329,-0.773,-1.269
-4.669,-5.389,-3.739,1.713,-0.502,-0.439
-4.536,-7.616,-2.037,2.15,0.244,0.401
-5.142,-8.774,-0.807,2.564,0.68,1.054
-4.938,-10.64,0.92,2.847,1.273,1.535
-5.169,-11.718,1.719,2.93,1.406,1.641
-4.438,-13.403,2.637,2.743,1.424,1.555
-3.984,-13.978,2.39,2.247,1.053,1.154
-2.981,-14.77,2.112,1.493,0.789,0.69
-2.852,-14.72,1.32,0.681,0.253,0.08
-2.406,-14.882,1.282,-0.151,-0.068,-0.485
-2.677,-14.45,1.281,-0.927,-0.568,-1.084
-2.733,-14.417,2.019,-1.579,-0.814,-1.549
-2.853,-14.765,2.934,-2.087,-1.165,-1.864
-3.127,-14.926,3.501,-2.488,-1.549,-1.939
-3.642,-14.469,3.398,-2.796,-1.508,-1.62
-3.821,-12.251,2.545,-2.88,-0.887,-0.845
-3.191,-8.032,1.271,-2.815,-0.16,0.483
-3.402,0.685,-2.3,-2.516,0.345,1.959
-1.984,4.608,-4.379,-2.0,1.647,2.862
0.247,7.763,-6.809,-1.41,1.311,2.586
0.54,10.016,-8.704,-0.909,0.984,1.664
0.65,10.77,-10.071,-0.378,0.609,0.099
1.355,6.863,-8.852,0.078,0.078,-1.612
-0.068,6.477,-8.833,0.377,-1.377,-2.745
-2.325,5.268,-7.905,0.692,-1.247,-2.751
-2.48,2.827,-6.344,1.134,-1.361,-2.237
-3.482,-1.297,-4.824,1.542,-1.543,-1.309
-4.418,-5.508,-3.27,1.996,-1.253,-0.212
-5.007,-8.339,-1.686,2.437,-0.532,0.761
-5.467,-10.211,-0.349,2.863,0.066,1.343
-5.698,-12.044,0.676,3.057,0.492,1.689
-6.003,-12.619,1.275,3.106,0.876,1.578
-5.564,-12.653,1.383,2.797,1.31,1.189
-4.653,-12.976,1.364,2.28,1.386,0.723
-3.854,-13.071,1.1,1.584,1.215,0.307
-3.527,-13.191,0.877,0.864,1.019,-0.153
-3.304,-13.487,0.979,0.124,0.546,-0.61
-3.436,-14.017,1.417,-0.558,0.066,-1.134
-3.496,-14.535,1.927,-1.201,-0.445,-1.616
-3.472,-15.133,2.786,-1.754,-0.795,-1.959
-3.777,-14.923,3.358,-2.222,-1.326,-2.141
-3.643,-13.996,3.368,-2.524,-1.12,-1.927
-3.686,-12.14,2.702,-2.646,-1.116,-1.258
-3.509,-9.484,1.755,-2.629,-0.546,-0.119
-3.506,-3.248,-0.721,-2.422,-0.29,1.411
-4.004,3.398,-3.272,-1.913,0.642,2.814
-2.022,5.667,-5.362,-1.486,0.732,2.761
-1.261,8.122,-8.222,-1.044,1.223,2.15
0.39,9.237,-9.813,-0.519,1.194,1.07
1.246,7.584,-10.095,-0.125,0.9,-0.588
2.431,4.983,-10.036,0.014,0.007,-2.263
0.41,6.015,-9.887,0.287,-0.373,-2.689
-0.123,4.967,-8.433,0.526,-1.138,-2.656
-2.168,3.644,-7.407,0.864,-1.635,-2.389
-3.098,1.086,-6.587,1.242,-1.499,-1.779
-3.429,-2.148,-5.01,1.744,-0.985,-0.887
-3.832,-5.651,-3.854,2.141,-0.543,0.17
-4.388,-8.185,-2.124,2.51,0.334,1.066
-4.931,-9.658,-1.168,2.644,0.785,1.712
-5.457,-11.078,-0.031,2.654,1.355,2.025
-5.733,-11.788,0.22,2.481,1.607,2.016
-5.314,-12.233,0.667,2.218,1.542,1.716
-4.745,-12.719,0.705,1.838,1.284,1.188
-3.706,-13.632,0.918,1.331,0.997,0.559
-2.782,-13.995,1.03,0.76,0.48,-0.084
-2.233,-14.597,1.247,0.04,-0.261,-0.744
-2.324,-15.328,1.822,-0.63,-0.776,-1.397
-2.463,-15.48,2.321,-1.35,-1.465,-1.926
-2.939,-15.271,2.65,-1.951,-1.829,-2.177
-3.669,-15.054,3.026,-2.52,-2.109,-2.077
-4.245,-14.453,2.723,-2.776,-1.625,-1.544
-4.025,-11.726,1.68,-2.868,-0.945,-0.379
-3.641,-4.626,-0.309,-2.61,0.091,1.482
-3.466,2.897,-2.211,-2.118,0.57,2.961
-1.434,5.741,-4.094,-1.605,0.905,2.91
-0.548,9.503,-6.708,-1.098,0.903,2.337
0.505,11.446,-8.185,-0.642,0.879,1.131
0.92,9.062,-8.733,-0.295,-0.033,-0.832
0.523,5.358,-9.228,-0.112,-0.504,-2.49
-1.459,5.27,-9.595,0.101,-0.717,-2.647
-2.496,3.312,-8.281,0.278,-0.9,-2.41
-3.781,1.353,-7.756,0.54,-1.229,-1.882
-4.801,-1.882,-6.397,0.861,-0.994,-1.04
-5.125,-4.735,-5.217,1.319,-0.602,-0.112
-5.448,-6.635,-3.379,1.932,-0.169,0.642
-6.048,-7.971,-2.335,2.539,0.219,1.174
-6.134,-9.625,-0.374,2.968,0.87,1.522
-6.207,-10.247,0.445,3.148,1.212,1.649
-5.937,-10.673,1.524,3.054,1.64,1.578
-4.885,-11.828,1.861,2.677,1.696,1.414
-3.764,-12.863,2.145,2.068,1.35,1.123
-3.315,-13.797,1.596,1.322,0.591,0.604
-2.998,-14.74,1.334,0.51,0.207,-0.096
-2.467,-15.609,1.376,-0.351,-0.452,-0.814
-3.218,-15.91,1.629,-1.131,-1.087,-1.528
-4.88,-15.616,1.982,-1.58,-1.411,-2.233
-4.903,-14.883,3.349,-1.768,-1.128,-2.727
-4.745,-14.057,3.459,-1.989,-1.519,-2.732
-4.783,-12.462,2.791,-2.123,-1.21,-2.165
-3.586,-9.616,1.533,-2.239,-0.527,-1.018
-1.269,-4.56,-0.186,-2.554,-0.075,0.72
-1.65,2.911,-3.892,-2.554,-0.197,2.58
-1.533,5.774,-6.076,-2.231,0.682,3.474
-0.846,7.824,-8.125,-1.812,0.759,3.094
-0.93,8.995,-10.001,-1.189,0.673,2.051
-0.972,7.866,-10.782,-0.538,0.657,0.455
0.169,4.114,-10.096,-0.166,0.601,-1.244
0.055,4.18,-9.884,0.044,-0.203,-2.233
-0.857,4.05,-8.774,0.23,-0.584,-2.329
-1.868,3.321,-7.744,0.409,-1.062,-2.173
-2.737,1.493,-6.48,0.649,-1.268,-1.698
-4.123,-0.633,-5.804,1.005,-1.366,-1.066
-4.805,-2.626,-4.54,1.555,-0.88,-0.275
-5.775,-4.687,-3.668,2.271,-0.275,0.428
-5.658,-7.106,-1.388,2.815,0.444,1.25
-6.486,-8.639,0.262,3.251,0.592,1.799
-6.426,-10.737,1.978,3.287,1.018,2.06
-6.506,-12.741,2.696,2.991,0.963,1.899
-6.071,-14.001,2.762,2.371,0.694,1.464
-5.986,-14.099,1.7,1.661,0.396,0.668
-5.119,-14.293,0.922,0.904,0.408,-0.102
-4.5,-13.847,0.597,0.193,0.079,-0.805
-4.147,-13.064,0.806,-0.459,-0.196,-1.376
-3.325,-12.938,1.674,-1.093,-0.553,-1.742
-3.6,-13.532,2.479,-1.678,-1.119,-1.96
-3.446,-14.134,2.866,-2.217,-1.48,-2.036
-3.746,-13.963,2.708,-2.646,-1.59,-1.809
-3.289,-13.061,2.47,-2.899,-1.26,-1.09
-3.222,-10.528,1.519,-2.977,-0.786,0.166
-2.622,-3.982,-0.536,-2.865,-0.071,1.861
-3.717,3.455,-1.787,-2.13,1.132,3.081
-0.286,6.013,-3.062,-1.597,1.587,2.895
-0.188,9.142,-5.933,-1.052,1.131,2.176
1.063,10.613,-7.352,-0.49,1.308,0.874
1.696,8.962,-7.693,0.064,0.537,-0.969
2.487,6.093,-8.722,0.1,-0.839,-2.448
-1.302,6.835,-9.251,0.407,-1.376,-2.678
-2.005,5.213,-7.748,0.739,-1.105,-2.597
-3.874,3.519,-7.049,1.15,-1.503,-2.177
-5.418,0.141,-5.514,1.638,-0.924,-1.336
-5.885,-3.513,-3.46,2.187,-0.336,-0.182
-6.661,-6.886,-1.255,2.718,0.372,0.979
-6.782,-9.695,1.009,3.063,1.014,2.04
-6.801,-12.654,2.262,3.044,1.341,2.647
-5.998,-14.255,2.599,2.704,1.481,2.696
-5.332,-15.105,2.328,2.08,1.351,2.143
-4.402,-15.583,1.496,1.311,0.901,1.245
-3.974,-15.444,0.273,0.508,0.253,0.099
-3.881,-14.933,0.188,-0.212,-0.346,-0.973
-4.235,-14.928,0.681,-0.909,-0.882,-1.85
-4.589,-15.389,1.666,-1.593,-1.378,-2.414
-5.007,-15.159,2.574,-2.197,-1.624,-2.584
-5.388,-14.092,2.901,-2.607,-1.721,-2.287
-5.85,-12.478,2.426,-2.772,-1.157,-1.48
-5.569,-9.408,0.99,-2.724,-0.697,-0.297
-5.06,-3.268,-1.474,-2.339,0.341,1.408
-4.681,4.777,-3.861,-1.657,0.95,2.925
-2.056,6.409,-5.167,-1.198,1.002,2.879
-1.205,9.304,-7.59,-0.787,0.895,2.106
0.63,10.624,-8.419,-0.364,1.024,0.99
0.932,9.374,-8.816,-0.133,-0.101,-0.803
0.99,5.164,-8.835,-0.143,-0.696,-2.528
-1.462,5.933,-9.592,0.094,-0.899,-2.917
-1.91,3.729,-7.909,0.352,-1.323,-2.729
-4.064,1.694,-7.409,0.56,-1.74,-2.374
-5.06,-1.059,-6.444,0.88,-1.077,-1.654
-4.746,-3.531,-5.045,1.314,-0.49,-0.702
-5.009,-5.639,-3.402,1.721,-0.214,0.298
-6.101,-6.544,-2.213,2.249,0.39,1.066
-6.662,-8.384,-0.172,2.763,0.997,1.78
-6.869,-9.896,1.673,3.108,1.112,2.137
-7.105,-11.78,2.548,3.153,1.079,2.088
-5.709,-14.157,3.12,2.813,1.405,1.668
-3.962,-16.067,2.718,2.033,1.002,0.973
-2.942,-16.619,2.01,1.024,0.489,0.003
-2.203,-17.085,1.743,-0.1,0.07,-0.942
-2.133,-17.353,1.947,-1.215,-0.62,-1.795
-3.269,-16.708,2.415,-2.117,-1.126,-2.37
-4.051,-15.977,3.552,-2.78,-1.351,-2.427
-4.572,-14.445,3.455,-3.065,-1.234,-1.896
-4.373,-11.654,2.36,-3.03,-0.663,-0.759
-3.574,-5.843,0.601,-2.769,0.214,1.034
-3.597,5.059,-3.164,-2.062,0.693,2.773
-1.779,7.256,-5.693,-1.494,0.749,3.029
-1.363,10.493,-8.199,-1.057,0.359,2.209
-1.168,12.686,-9.7,-0.718,0.434,0.768
-0.985,11.826,-10.842,-0.337,0.044,-1.147
-0.194,4.358,-9.798,-0.253,-0.491,-2.875
-1.699,5.241,-9.769,0.091,-0.54,-3.258
-1.894,3.334,-8.923,0.417,-0.465,-2.813
-2.418,0.689,-7.841,0.805,-0.933,-2.109
-3.181,-1.842,-6.44,1.115,-1.168,-1.309
-4.336,-3.546,-4.966,1.488,-0.812,-0.481
-4.838,-5.709,-3.549,1.794,-0.14,0.438
-5.288,-7.394,-1.6,2.128,0.358,1.328
-5.737,-8.797,-0.37,2.349,0.478,2.11
-6.73,-10.531,0.525,2.619,0.768,2.495
-6.091,-11.952,0.994,2.672,0.875,2.47
-5.747,-13.235,1.088,2.57,0.66,1.984
-5.089,-14.287,0.608,2.183,0.475,1.135
-4.605,-15.03,0.375,1.543,0.395,0.088
-3.621,-15.757,0.508,0.597,0.035,-0.876
-3.963,-16.151,0.855,-0.367,-0.241,-1.705
-3.693,-16.152,1.61,-1.35,-0.705,-2.231
-4.407,-15.922,2.537,-2.145,-0.861,-2.41
-4.338,-15.113,3.353,-2.64,-0.923,-2.165
-4.968,-12.849,3.155,-2.868,-0.687,-1.424
-4.889,-9.613,2.602,-2.86,-0.467,-0.306
-4.303,-3.416,0.478,-2.537,0.456,1.519
-3.819,4.305,-1.328,-1.921,0.939,2.879
-1.223,6.45,-3.442,-1.595,0.999,2.602
-0.24,9.984,-6.027,-1.136,0.204,1.415
0.37,12.409,-8.117,-0.738,0.24,-0.066
0.522,10.599,-8.445,-0.314,-0.682,-2.093
0.543,5.547,-9.087,-0.141,-1.724,-3.509
-2.722,4.96,-9.305,0.368,-1.786,-3.311
-3.322,1.223,-7.777,0.691,-0.971,-2.275
-4.261,-2.572,-6.291,1.146,-0.951,-0.99
-5.681,-5.804,-4.741,1.469,-0.424,0.28
-6.685,-7.341,-3.094,1.913,0.293,1.249
-6.605,-8.829,-1.373,2.234,0.767,1.945
-7.294,-9.846,-0.118,2.579,0.785,2.184
-7.135,-10.997,0.769,2.658,0.812,1.96
-6.673,-11.594,0.778,2.549,0.797,1.378
-5.5,-12.455,0.549,2.192,0.961,0.742
-4.51,-12.95,0.213,1.72,0.6,0.077
-3.404,-13.298,-0.035,1.044,0.387,-0.556
-2.813,-13.72,0.155,0.27,0.087,-1.076
-2.309,-14.233,0.773,-0.547,-0.373,-1.463
-2.555,-14.741,1.247,-1.392,-0.99,-1.752
-3.131,-14.684,1.417,-2.064,-1.024,-1.888
-3.502,-14.288,1.526,-2.543,-1.067,-1.792
-4.131,-13.135,1.099,-2.761,-0.556,-1.312
-3.943,-11.205,0.448,-2.762,0.042,-0.419
-3.23,-6.069,-0.756,-2.554,0.762,1.074
-3.252,3.968,-3.832,-2.053,1.017,2.547
-1.049,5.028,-5.786,-1.662,1.403,2.826
-0.477,8.039,-8.34,-1.225,0.647,2.135
0.225,10.785,-9.968,-0.773,0.908,0.971
1.189,10.189,-10.778,-0.28,0.269,-0.744
1.703,3.801,-9.478,-0.04,-0.744,-2.458
-0.87,5.599,-9.049,0.32,-1.538,-3.019
-1.59,4.347,-7.694,0.642,-1.406,-2.75
-2.937,1.655,-6.577,0.945,-2.139,-2.143
-4.832,-1.095,-5.36,1.271,-2.004,-1.344
-5.69,-3.893,-3.809,1.643,-1.103,-0.382
-6.145,-6.301,-2.351,2.11,-0.489,0.574
-6.353,-8.474,-0.735,2.519,0.221,1.411
-6.971,-10.022,0.24,2.805,0.537,1.975
-7.393,-11.483,0.77,2.845,1.021,2.099
-7.173,-12.349,0.74,2.631,1.186,1.788
-6.347,-12.993,0.569,2.148,1.331,1.199
-5.678,-13.4,0.059,1.509,0.965,0.435
-4.8,-13.328,-0.193,0.82,0.797,-0.424
-3.896,-13.493,0.146,0.127,0.266,-1.214
-3.688,-14.031,0.99,-0.575,-0.397,-1.87
-3.42,-14.496,1.725,-1.264,-1.069,-2.405
-3.381,-15.303,2.715,-1.946,-1.646,-2.659
-3.278,-15.444,3.251,-2.306,-1.759,-2.425
-2.95,-13.988,2.969,-2.551,-1.631,-1.442
-2.62,-9.593,1.82,-2.455,-0.719,0.133
-2.248,-2.75,-0.552,-2.212,-0.047,2.083
-3.446,5.146,-3.032,-1.492,1.074,3.534
-1.275,7.914,-5.281,-1.11,1.467,3.483
-2.07,10.283,-7.835,-0.68,1.118,2.46
-1.91,10.579,-9.44,-0.447,1.236,0.828
-1.557,8.271,-9.574,-0.102,1.213,-1.111
0.226,4.906,-9.614,-0.057,0.29,-2.629
-2.051,5.202,-9.059,0.162,-0.494,-2.861
-1.818,4.074,-7.676,0.463,-0.495,-2.603
-2.258,1.71,-6.364,0.881,-1.471,-2.033
-3.535,-0.72,-5.07,1.373,-1.675,-1.285
-4.516,-3.235,-3.131,1.972,-1.301,-0.41
-5.127,-5.885,-1.638,2.574,-0.699,0.513
-6.038,-7.913,0.118,3.109,-0.026,1.286
-6.27,-9.94,1.484,3.299,0.395,1.804
-7.025,-11.427,2.342,3.222,0.667,1.997
-6.651,-12.517,2.483,2.876,0.785,1.897
-6.556,-12.885,2.135,2.42,0.617,1.473
-5.884,-13.674,1.371,1.714,0.357,0.861
-5.855,-13.739,0.959,0.978,0.289,0.085
-4.818,-14.203,1.297,0.105,0.045,-0.639
-4.986,-14.656,1.847,-0.859,-0.358,-1.361
-4.982,-15.87,3.466,-1.672,-0.528,-2.046
-5.446,-16.097,5.078,-2.397,-0.954,-2.481
-6.167,-14.49,5.264,-2.72,-0.995,-2.374
-5.737,-12.583,4.637,-2.771,-0.799,-1.74
-5.289,-9.726,3.155,-2.611,-0.353,-0.521
-4.082,-3.684,0.664,-2.566,0.294,1.288
-3.987,4.531,-3.083,-2.016,0.899,2.946
-1.469,6.322,-4.807,-1.576,2.021,3.24
-0.221,8.321,-7.296,-1.179,1.489,2.686
0.04,9.557,-8.907,-0.719,1.368,1.459
0.182,9.005,-9.931,-0.152,0.892,-0.376
1.117,5.096,-8.939,0.055,0.005,-2.155
-1.339,5.272,-9.189,0.282,-1.623,-2.8
-3.024,3.533,-7.625,0.515,-1.4,-2.812
-3.89,1.893,-6.426,0.843,-1.595,-2.495
-4.647,-1.169,-4.702,1.209,-1.356,-1.792
-5.088,-3.918,-3.958,1.704,-0.595,-0.864
-4.519,-6.839,-2.085,2.164,0.291,0.133
-5.277,-8.181,-0.919,2.622,0.665,0.911
-5.087,-10.158,0.687,2.772,1.138,1.58
-5.938,-11.572,1.331,2.772,1.114,1.87
-5.572,-12.936,2.096,2.46,1.266,1.769
-5.172,-13.52,1.684,2.004,1.0,1.275
-3.909,-14.067,1.349,1.387,0.885,0.682
-3.62,-14.26,0.811,0.751,0.391,-0.023
-2.854,-14.414,0.547,-0.011,0.073,-0.733
-3.063,-14.56,0.84,-0.78,-0.392,-1.307
-3.232,-14.57,1.559,-1.505,-0.816,-1.714
-3.963,-14.449,2.141,-2.136,-1.188,-1.939
-4.223,-14.366,2.642,-2.581,-1.209,-1.916
-4.492,-13.178,2.853,-2.792,-1.17,-1.512
-5.392,-10.589,1.81,-2.756,-0.699,-0.716
-4.546,-6.818,0.531,-2.661,0.147,0.498
-4.167,-0.124,-2.269,-2.304,0.279,1.908
-4.062,4.415,-4.784,-1.755,1.475,2.9
-0.823,6.326,-6.996,-1.296,1.69,2.874
0.852,7.729,-9.178,-0.883,1.495,2.228
2.362,7.513,-10.51,-0.325,1.067,1.258
3.05,4.732,-9.909,0.047,0.72,-0.25
3.681,4.427,-9.299,0.21,-0.76,-1.647
0.498,5.643,-8.766,0.448,-1.3,-2.309
-0.037,5.131,-6.833,0.705,-1.659,-2.453
-2.619,3.973,-5.706,0.995,-2.08,-2.465
-3.441,1.464,-4.166,1.363,-1.664,-1.922
-4.805,-2.012,-2.589,1.902,-1.218,-1.034
-5.479,-5.895,-0.958,2.453,-0.599,0.105
-6.608,-8.936,0.634,2.945,0.037,1.027
-7.1,-11.574,1.967,3.125,0.607,1.644
-7.458,-13.623,2.505,3.089,1.08,1.869
-6.687,-15.034,2.261,2.718,1.281,1.68
-5.196,-15.765,2.095,2.088,1.334,1.013
-3.701,-16.212,1.458,1.224,0.973,0.146
-2.348,-16.316,1.572,0.34,0.574,-0.71
-1.395,-16.445,2.012,-0.602,-0.248,-1.512
-1.636,-16.603,3.173,-1.527,-0.973,-2.072
-2.8,-16.557,4.344,-2.285,-1.541,-2.257
-4.101,-15.637,4.773,-2.732,-1.71,-1.959
-5.322,-13.137,3.94,-2.838,-1.256,-1.064
-5.352,-8.716,2.55,-2.794,-0.583,0.42
-5.595,1.122,-1.18,-2.455,0.177,2.218
-4.588,4.981,-3.735,-1.779,1.781,3.151
-1.354,8.051,-5.787,-1.309,1.812,2.772
-0.045,9.821,-7.921,-0.896,1.421,1.977
0.614,9.664,-9.235,-0.435,1.265,0.517
2.167,4.581,-8.437,-0.051,0.633,-1.375
1.174,5.15,-9.056,0.109,-1.152,-2.557
-1.417,4.329,-9.063,0.35,-1.038,-2.544
-2.131,3.18,-7.8,0.658,-1.046,-2.508
-3.099,1.321,-6.816,0.96,-1.373,-2.177
-4.328,-1.444,-5.524,1.318,-1.126,-1.508
-3.995,-4.304,-4.026,1.664,-0.619,-0.578
-4.782,-6.351,-2.361,2.203,-0.298,0.305
-5.178,-8.457,-0.786,2.571,-0.008,1.171
-6.236,-10.127,0.482,2.941,0.418,1.771
-6.385,-11.367,1.311,3.057,0.969,2.053
-6.638,-12.604,1.815,2.895,1.211,1.906
-5.516,-13.551,1.837,2.361,1.281,1.422
-5.008,-14.366,1.646,1.645,1.131,0.673
-3.928,-14.744,1.561,0.716,0.825,-0.148
-3.438,-15.207,1.618,-0.264,0.22,-0.979
-3.455,-15.893,2.257,-1.199,-0.378,-1.616
-4.522,-16.296,2.795,-1.958,-0.978,-2.205
-4.704,-15.854,3.278,-2.645,-1.214,-2.431
-5.155,-14.813,3.119,-2.985,-1.076,-2.1
-5.282,-12.374,2.382,-3.019,-0.689,-1.19
-4.226,-7.753,0.9,-2.894,0.058,0.154
-3.71,1.76,-2.338,-2.411,0.532,1.937
-2.14,5.369,-4.385,-1.682,1.647,2.998
-0.797,7.694,-6.42,-1.194,1.045,2.713
0.032,9.552,-8.375,-0.778,1.157,1.854
0.652,9.747,-9.332,-0.308,0.607,0.387
1.461,5.424,-8.422,-0.08,-0.121,-1.461
-0.405,5.263,-8.656,0.047,-1.617,-2.698
-1.81,5.277,-7.865,0.347,-1.351,-2.853
-3.136,3.677,-6.413,0.651,-1.763,-2.771
-4.447,1.352,-5.224,1.057,-1.575,-2.169
-5.09,-2.448,-3.89,1.469,-0.915,-1.064
-5.461,-5.408,-2.491,1.997,-0.398,0.174
-6.25,-8.409,-0.958,2.484,0.239,1.405
-6.762,-10.726,0.759,2.894,0.354,2.393
-7.715,-12.531,1.675,3.075,0.357,2.685
-7.865,-13.079,2.38,3.102,0.577,2.286
-7.123,-13.431,2.686,2.763,0.708,1.526
-6.288,-13.615,2.295,2.143,0.523,0.593
-5.339,-13.718,1.753,1.267,0.521,-0.383
-4.688,-14.21,2.012,0.19,0.236,-1.229
-4.417,-15.628,2.853,-0.912,-0.212,-1.9
-4.468,-17.141,4.111,-1.967,-0.795,-2.359
-4.958,-17.131,5.119,-2.823,-1.077,-2.479
-5.65,-15.764,5.055,-3.335,-1.012,-1.994
-5.262,-12.211,4.215,-3.42,-0.137,-0.751
-4.806,-4.478,1.459,-3.23,0.266,1.054
-4.912,3.567,-1.567,-2.556,1.114,2.735
-2.23,6.95,-3.902,-1.835,1.565,2.95
-0.296,9.427,-6.387,-1.201,1.289,2.394
1.184,10.036,-8.169,-0.652,0.832,1.355
1.811,7.567,-8.605,-0.221,0.197,-0.305
2.336,4.996,-8.604,-0.071,-0.782,-2.002
-0.257,5.277,-8.812,0.105,-1.474,-2.492
-1.458,4.252,-7.844,0.346,-1.451,-2.491
-3.239,3.116,-7.007,0.607,-1.785,-2.392
-4.583,0.802,-5.7,0.937,-1.472,-1.886
-4.737,-2.299,-4.234,1.317,-0.946,-1.015
-5.352,-4.66,-2.622,1.862,-0.522,-0.083
-5.896,-7.147,-0.74,2.341,-0.224,0.819
-7.022,-9.622,0.797,2.811,0.127,1.47
-7.213,-11.243,1.988,3.141,0.393,1.747
-7.878,-12.056,2.385,3.302,0.711,1.575
-6.424,-13.03,2.599,3.095,0.92,1.279
-5.956,-12.952,2.054,2.641,0.789,0.763
-5.274,-12.544,1.577,1.913,0.729,0.274
-4.934,-12.285,1.047,1.009,0.58,-0.174
-4.843,-12.379,1.032,0.078,0.339,-0.567
-4.927,-13.126,1.383,-0.833,-0.021,-1.04
-5.156,-13.925,2.214,-1.602,-0.266,-1.542
-4.557,-14.815,3.641,-2.256,-0.742,-2.019
-5.109,-14.918,4.433,-2.809,-1.102,-2.246
-4.59,-14.61,4.57,-3.168,-1.083,-1.959
-4.829,-12.313,3.538,-3.199,-0.747,-1.005
-4.013,-7.427,2.214,-3.056,-0.106,0.564
-4.656,3.022,-1.769,-2.617,0.366,2.341
-2.748,6.138,-3.81,-1.895,1.382,3.078
-1.898,9.087,-6.445,-1.44,0.996,2.526
-0.618,10.941,-8.099,-1.085,1.208,1.601
-0.013,10.883,-9.765,-0.701,0.871,-0.044
1.403,5.386,-9.055,-0.419,0.514,-1.906
0.463,6.014,-9.534,-0.214,-0.561,-2.812
-0.491,5.999,-8.803,0.315,-0.478,-2.673
-1.618,4.771,-7.811,0.859,-1.124,-2.491
-2.991,2.686,-6.718,1.475,-1.314,-1.981
-4.12,-0.244,-4.962,2.106,-0.814,-1.175
-4.597,-3.277,-2.872,2.664,-0.517,-0.108
-5.81,-5.962,-0.332,3.147,-0.03,0.876
-6.593,-8.309,1.794,3.414,0.285,1.652
-7.398,-10.888,3.703,3.393,0.549,2.127
-7.374,-12.726,4.378,3.031,0.377,2.193
-7.663,-13.683,3.836,2.433,0.51,1.708
-6.651,-14.216,2.636,1.673,0.549,1.013
-5.914,-14.013,1.454,0.911,0.453,0.233
-5.099,-13.416,0.657,0.162,0.231,-0.497
-4.926,-13.085,0.483,-0.513,-0.027,-1.154
-4.32,-13.585,1.219,-1.087,-0.292,-1.662
-4.152,-14.473,2.474,-1.626,-0.82,-2.021
-4.087,-15.519,3.644,-2.115,-1.32,-2.162
-4.451,-15.82,4.269,-2.548,-1.258,-1.846
-3.71,-14.258,4.2,-2.787,-0.754,-0.866
-3.252,-8.614,3.578,-2.775,-0.109,0.778
-3.851,0.97,0.777,-2.487,-0.001,2.437
-4.275,4.758,-0.837,-1.898,2.172,2.998
-0.696,8.29,-2.974,-1.377,2.43,2.499
-0.985,10.377,-5.391,-0.909,2.012,1.313
-0.301,9.426,-7.733,-0.517,1.849,-0.364
1.634,4.417,-8.013,-0.234,1.835,-1.994
2.476,5.443,-9.531,-0.083,-0.394,-2.62
-0.32,5.293,-9.743,0.3,-1.124,-2.45
-0.788,5.021,-8.984,0.857,-1.501,-2.086
-2.536,3.13,-7.555,1.375,-2.068,-1.635
-4.141,1.131,-5.981,1.914,-2.035,-1.041
-5.515,-1.783,-3.876,2.413,-1.388,-0.24
-6.836,-4.17,-2.205,2.928,-0.874,0.556
-7.774,-6.72,-0.041,3.314,0.102,1.262
-8.238,-8.208,1.713,3.587,0.689,1.698
-8.637,-9.779,3.227,3.585,1.502,1.9
-8.144,-10.715,3.785,3.32,1.698,1.751
-7.31,-11.458,4.073,2.782,2.058,1.408
-6.178,-12.444,3.533,2.005,1.65,0.949
-5.333,-13.567,2.98,1.136,1.292,0.324
-4.568,-14.064,2.199,0.226,0.503,-0.453
-4.251,-14.665,2.253,-0.645,-0.209,-1.245
-4.538,-15.189,2.718,-1.447,-0.915,-2.029
-4.497,-15.77,3.673,-2.186,-1.467,-2.713
-5.5,-16.014,4.359,-2.811,-1.9,-3.024
-5.794,-15.855,4.449,-3.148,-1.748,-2.842
-5.813,-13.669,3.364,-3.17,-1.412,-1.964
-5.008,-8.924,1.557,-2.917,-0.679,-0.231
-4.284,1.546,-1.244,-2.471,0.048,1.9
-2.927,5.586,-4.227,-1.865,0.424,3.059
-1.791,9.101,-6.716,-1.381,0.865,2.904
-0.36,11.308,-8.488,-0.881,1.141,2.012
0.222,11.279,-9.547,-0.579,0.678,0.319
0.298,5.488,-9.671,-0.275,0.006,-1.652
-0.144,5.516,-9.339,0.03,-0.468,-2.713
-1.512,4.864,-8.628,0.425,-1.21,-2.587
-3.43,2.928,-7.409,0.791,-1.473,-2.159
-4.381,0.04,-5.905,1.201,-1.406,-1.426
-5.727,-2.754,-4.342,1.666,-1.015,-0.609
-6.432,-5.718,-2.632,2.107,-0.274,0.21
-6.34,-7.992,-0.649,2.501,0.292,0.85
-6.294,-9.398,0.732,2.768,0.533,1.282
-6.366,-10.649,1.74,2.944,0.824,1.47
-6.165,-11.462,1.911,2.892,1.009,1.391
-5.353,-11.837,2.041,2.641,1.183,1.189
-4.975,-12.159,1.483,2.168,1.0,0.897
-4.511,-12.687,1.214,1.532,0.936,0.569
-4.66,-12.558,0.742,0.819,0.622,0.179
-4.281,-12.471,0.911,0.104,0.516,-0.216
-4.375,-12.521,1.022,-0.601,-0.059,-0.655
-4.592,-12.77,1.496,-1.204,-0.27,-1.083
-4.567,-12.881,1.985,-1.746,-0.682,-1.463
-4.526,-12.846,2.425,-2.249,-1.028,-1.768
-4.813,-12.772,2.822,-2.688,-1.353,-1.897
-4.876,-12.509,2.537,-3.0,-1.333,-1.713
-5.409,-10.927,1.661,-3.039,-1.283,-1.125
-5.382,-8.109,0.296,-2.878,-0.38,-0.021
-4.342,-2.22,-1.588,-2.486,0.47,1.429
-4.199,3.996,-3.916,-1.773,1.066,2.604
-1.797,6.726,-5.705,-1.249,1.378,2.698
-0.574,8.713,-7.814,-0.832,1.068,2.029
-0.039,10.001,-9.26,-0.468,0.662,0.724
0.311,7.74,-9.638,-0.142,0.057,-0.914
0.674,4.689,-9.326,0.008,-0.946,-2.281
-2.202,4.837,-8.783,0.38,-1.492,-2.706
-3.078,3.915,-7.296,0.795,-1.144,-2.541
-3.606,1.778,-5.933,1.225,-1.523,-2.023
-5.424,-0.892,-4.524,1.741,-1.371,-1.338
-5.889,-3.759,-2.91,2.158,-0.455,-0.42
-6.264,-6.246,-1.269,2.644,0.258,0.438
-6.052,-8.788,0.411,2.899,0.762,1.151
-6.69,-10.882,1.834,3.036,1.29,1.572
-5.91,-12.203,2.498,2.819,1.592,1.67
-5.679,-12.793,2.401,2.466,1.639,1.342
-4.469,-13.11,1.926,1.863,1.533,0.882
-3.844,-12.86,1.328,1.292,1.202,0.372
-2.925,-12.874,0.898,0.657,0.663,-0.074
-3.009,-12.98,0.912,0.035,0.053,-0.52
-2.968,-13.52,1.431,-0.616,-0.538,-0.99
-3.262,-14.788,2.393,-1.316,-1.102,-1.386
-3.978,-15.847,3.261,-1.979,-1.557,-1.634
-4.732,-15.451,3.482,-2.558,-1.547,-1.638
-5.141,-14.124,3.231,-2.913,-1.336,-1.174
-5.833,-11.246,2.401,-2.973,-0.403,-0.256
-4.689,-5.458,0.665,-2.822,0.361,1.126
-5.294,2.565,-2.269,-2.241,0.55,2.423
-3.654,5.673,-4.199,-1.608,1.849,2.831
-1.493,7.731,-6.183,-1.047,1.633,2.337
0.286,8.725,-8.285,-0.588,1.056,1.575
0.328,7.053,-9.357,-0.158,0.535,0.249
1.835,3.792,-9.215,-0.049,0.567,-1.248
1.05,4.126,-9.3,0.07,-1.057,-2.113
-0.878,4.438,-8.65,0.251,-1.006,-2.427
-1.961,3.652,-7.654,0.446,-1.461,-2.62
-3.158,2.435,-6.408,0.743,-1.506,-2.5
-3.927,0.091,-5.197,1.084,-1.584,-2.016
-4.281,-2.599,-3.756,1.506,-1.048,-1.238
-4.624,-5.098,-2.407,1.991,-0.827,-0.192
-5.518,-7.308,-0.436,2.503,-0.184,0.84
-6.431,-9.102,0.936,2.905,0.167,1.656
-7.227,-10.712,2.164,3.121,0.511,2.119
-7.97,-11.441,2.623,3.146,0.791,2.155
-7.483,-12.248,2.884,2.874,1.029,1.834
-7.16,-12.274,2.299,2.362,0.936,1.248
-6.334,-12.092,1.681,1.704,0.896,0.624
-5.935,-11.958,1.2,0.965,0.786,0.057
-5.637,-12.269,1.202,0.127,0.441,-0.478
-6.22,-12.676,1.433,-0.718,0.125,-1.079
-6.484,-13.392,2.353,-1.541,-0.165,-1.685
-7.117,-14.024,3.354,-2.277,-0.557,-2.29
-7.182,-14.013,4.221,-2.89,-0.903,-2.764
-7.283,-13.132,4.297,-3.256,-1.258,-2.859
-6.621,-11.111,3.253,-3.27,-0.983,-2.246
-4.795,-8.532,1.459,-3.125,-0.432,-0.876
-2.856,-2.724,-1.062,-2.753,0.249,1.097
-2.861,5.718,-4.234,-1.966,0.736,2.893
-0.275,7.456,-6.064,-1.364,1.029,3.279
0.214,9.531,-8.213,-0.897,0.951,2.726
0.927,10.861,-9.081,-0.339,0.607,1.572
0.32,9.344,-9.037,0.043,-0.459,-0.348
0.603,4.863,-7.862,0.049,-1.198,-2.197
-2.192,5.719,-7.578,0.275,-1.524,-2.793
-2.934,3.941,-5.67,0.54,-1.842,-2.764
-4.98,2.422,-4.47,0.839,-2.018,-2.546
-5.645,-0.584,-3.329,1.289,-1.314,-1.763
-6.024,-4.481,-1.993,1.947,-0.604,-0.554
-6.135,-7.556,-0.397,2.471,-0.097,0.675
-7.026,-9.621,1.104,2.892,0.333,1.634
-7.867,-11.755,1.946,3.05,0.553,2.159
-8.098,-12.866,2.511,2.923,0.829,2.151
-7.624,-13.187,2.233,2.388,0.834,1.576
-7.009,-13.667,1.745,1.718,0.877,0.722
-5.834,-13.8,0.857,0.91,0.715,-0.227
-4.639,-13.808,0.594,0.04,0.521,-1.071
-4.668,-14.102,0.926,-0.816,0.109,-1.753
-4.316,-14.641,1.519,-1.591,-0.163,-2.246
-4.615,-14.904,2.267,-2.284,-0.616,-2.465
-4.756,-14.863,3.032,-2.724,-0.69,-2.275
-5.266,-13.384,2.669,-2.788,-0.535,-1.476
-4.428,-10.052,1.599,-2.728,-0.034,-0.113
-4.401,-2.34,-0.719,-2.351,0.33,1.668
-4.069,3.984,-2.664,-1.644,1.348,2.938
-1.689,7.223,-4.755,-1.14,1.214,2.861
-0.904,9.603,-6.86,-0.782,0.902,2.031
-0.344,10.83,-8.23,-0.372,0.815,0.54
0.615,7.752,-8.314,-0.116,0.375,-1.338
1.053,5.556,-8.635,-0.04,-0.84,-2.756
-1.525,5.588,-8.703,0.214,-1.238,-2.999
-2.27,4.209,-7.215,0.511,-1.267,-2.811
-3.347,1.914,-6.269,0.944,-1.737,-2.191
-4.676,-0.893,-4.569,1.487,-1.403,-1.294
-5.387,-3.758,-2.901,2.065,-0.971,-0.165
-5.88,-6.934,-0.476,2.676,-0.237,1.032
-6.852,-9.089,0.823,3.217,0.099,1.903
-7.235,-11.066,2.539,3.44,0.548,2.324
-8.1,-12.078,2.945,3.364,0.503,2.255
-7.948,-12.594,3.095,3.011,0.877,1.786
-7.717,-12.186,2.25,2.397,0.81,1.022
-6.586,-12.241,1.949,1.575,0.862,0.322
-6.248,-12.19,1.281,0.747,0.581,-0.336
-5.344,-12.625,1.407,-0.107,0.309,-0.91
-5.575,-13.756,2.028,-0.9,-0.185,-1.494
-5.615,-15.022,3.273,-1.696,-0.615,-2.028
-5.674,-15.378,4.259,-2.441,-1.044,-2.36
-6.186,-15.098,4.873,-2.989,-1.128,-2.194
-6.693,-13.519,4.289,-3.158,-0.799,-1.515
-5.949,-9.919,2.899,-3.048,0.058,-0.179
-4.186,-0.03,0.047,-2.748,0.427,1.681
-4.755,3.736,-2.944,-2.019,1.092,2.616
-1.273,7.177,-5.062,-1.369,1.649,2.202
0.679,9.509,-6.672,-0.853,1.159,1.416
0.953,10.917,-7.761,-0.558,0.334,0.045
0.026,5.876,-7.698,-0.198,-0.152,-1.825
0.471,5.838,-7.249,-0.049,-1.078,-2.826
-3.075,4.301,-7.125,0.155,-1.943,-2.637
-4.685,2.532,-6.19,0.428,-1.697,-2.211
-5.613,-0.492,-5.01,0.841,-1.586,-1.41
-6.868,-3.341,-4.126,1.35,-1.155,-0.356
-7.212,-6.275,-2.375,1.861,-0.214,0.785
-7.891,-7.905,-1.074,2.415,0.08,1.596
-8.322,-9.417,0.161,2.8,0.456,2.068
-8.743,-10.21,0.978,3.006,0.618,2.064
-8.235,-10.957,1.887,2.891,0.787,1.738
-8.051,-11.016,1.618,2.539,0.494,1.138
-6.899,-11.003,1.49,1.977,0.715,0.581
-6.525,-10.972,0.858,1.327,0.417,0.031
-6.081,-11.202,0.503,0.651,0.289,-0.457
-5.892,-11.859,0.606,-0.05,0.005,-0.982
-5.825,-12.838,0.964,-0.768,-0.315,-1.532
-6.019,-14.204,1.966,-1.509,-0.579,-2.031
-6.23,-15.306,3.214,-2.287,-0.897,-2.408
-6.535,-15.44,3.646,-2.919,-0.805,-2.448
-6.05,-13.914,3.375,-3.29,-0.486,-1.869
-5.369,-10.288,2.593,-3.323,0.18,-0.621
-4.084,-3.723,0.633,-3.068,0.917,1.061
-3.508,3.659,-2.204,-2.286,1.601,2.442
-0.357,6.974,-4.242,-1.619,1.798,2.776
0.55,8.822,-6.489,-1.021,1.318,2.184
1.249,9.838,-8.088,-0.567,0.999,0.878
1.472,8.225,-9.071,-0.177,0.308,-0.852
2.118,5.452,-8.91,-0.044,-0.546,-2.293
-0.457,5.203,-8.959,0.231,-1.329,-2.788
-1.297,4.635,-7.974,0.644,-1.286,-2.643
-2.026,2.367,-7.008,1.108,-1.791,-2.087
-3.056,-0.443,-5.209,1.621,-2.124,-1.319
-4.333,-3.208,-3.638,2.121,-1.884,-0.348
-5.554,-5.428,-1.877,2.756,-1.161,0.507
-6.452,-7.694,0.263,3.15,-0.644,1.318
-8.009,-9.106,1.823,3.403,-0.238,1.797
-8.944,-10.34,2.719,3.425,0.591,1.931
-8.774,-11.499,3.213,3.122,0.96,1.603
-7.754,-12.298,3.231,2.449,1.026,1.107
-7.41,-12.622,2.059,1.682,0.869,0.346
-6.111,-13.305,1.519,0.807,0.933,-0.403
-5.353,-13.507,0.885,-0.109,0.484,-1.131
-5.097,-14.25,0.874,-0.986,0.198,-1.733
-4.928,-14.98,1.352,-1.744,-0.094,-2.248
-4.467,-15.411,1.997,-2.363,-0.406,-2.534
-4.808,-15.327,2.405,-2.855,-0.529,-2.431
-4.596,-14.028,2.48,-3.065,-0.36,-1.824
-4.613,-10.488,1.674,-3.023,-0.027,-0.641
-4.12,-4.444,0.099,-2.63,0.378,1.02
-4.211,3.517,-2.137,-1.954,0.683,2.588
-2.475,5.739,-3.949,-1.397,1.095,2.873
-0.782,7.608,-5.968,-1.001,0.815,2.325
0.467,8.655,-7.476,-0.62,0.453,1.152
0.779,7.688,-8.436,-0.476,-0.065,-0.484
1.066,4.208,-8.563,-0.452,-0.704,-2.13
-0.778,5.431,-9.007,-0.222,-1.591,-2.697
-3.608,4.984,-8.661,0.151,-1.791,-2.679
-4.77,3.085,-7.838,0.612,-1.605,-2.357
-5.747,-0.091,-6.409,1.179,-1.776,-1.849
-6.54,-3.109,-4.782,1.675,-1.037,-1.153
-6.145,-5.875,-2.417,2.236,0.039,-0.356
-4.69,-8.016,-0.263,2.568,0.62,0.432
-4.86,-9.534,1.505,2.741,0.72,1.102
-4.718,-10.573,2.58,2.727,1.053,1.622
-4.958,-11.515,2.903,2.537,0.723,1.832
-5.648,-12.386,2.114,2.129,0.265,1.651
-6.474,-13.291,1.191,1.618,0.087,1.076
-6.257,-14.346,0.7,0.905,0.279,0.283
-5.831,-15.044,0.618,-0.001,0.295,-0.634
-5.16,-15.946,1.475,-0.964,0.28,-1.483
-4.754,-16.167,2.819,-1.942,0.029,-2.081
-4.6,-15.395,3.679,-2.688,-0.186,-2.218
-4.83,-13.686,3.877,-3.127,-0.232,-1.853
-5.045,-11.792,2.971,-3.38,0.075,-0.927
-4.373,-7.208,1.284,-3.308,0.784,0.411
-3.615,0.874,-2.061,-2.833,1.352,1.986
-1.608,5.043,-3.65,-2.148,1.913,2.926
-0.421,7.04,-5.822,-1.586,1.319,2.613
0.756,9.488,-7.51,-0.966,1.292,1.666
1.756,9.723,-8.387,-0.467,0.699,0.202
2.481,6.141,-8.054,-0.167,-0.14,-1.469
1.183,5.245,-8.906,-0.057,-0.97,-2.624
0.388,5.612,-8.894,0.246,-0.962,-2.746
-0.654,4.296,-8.416,0.666,-1.616,-2.461
-2.367,2.107,-7.577,1.173,-2.039,-1.874
-3.941,-0.186,-6.069,1.642,-1.992,-1.203
-5.244,-2.753,-4.012,2.201,-1.67,-0.511
-5.747,-5.429,-1.822,2.659,-1.139,0.147
-6.335,-7.343,0.591,3.001,-0.609,0.607
-6.543,-8.576,2.03,3.169,-0.123,0.933
-6.401,-10.097,3.191,3.226,0.494,1.077
-5.928,-10.994,3.288,3.002,0.698,1.053
-5.913,-11.576,2.911,2.562,0.696,0.903
-5.936,-11.894,2.088,1.946,0.628,0.646
-6.222,-11.93,1.406,1.25,0.735,0.279
-6.135,-11.572,0.857,0.515,0.709,-0.129
-5.81,-11.474,0.863,-0.155,0.679,-0.521
-5.29,-11.627,1.142,-0.743,0.513,-0.935
-4.653,-12.002,1.689,-1.275,0.197,-1.322
-4.25,-12.665,1.9,-1.778,-0.154,-1.594
-4.037,-13.468,2.239,-2.207,-0.543,-1.743
-4.152,-13.598,2.076,-2.544,-0.734,-1.697
-4.989,-13.619,1.322,-2.889,-0.495,-1.338
-5.638,-11.334,0.116,-3.075,0.31,-0.538
-5.553,-6.699,-1.17,-2.749,0.898,0.681
-4.419,0.9,-3.374,-2.247,1.525,2.111
-2.419,4.174,-4.97,-1.755,1.516,2.686
-0.839,7.306,-6.638,-1.194,1.262,2.353
1.456,8.302,-8.038,-0.592,0.961,1.72
2.738,7.448,-8.557,-0.388,0.248,0.478
2.039,4.411,-8.162,-0.299,-0.825,-1.213
-0.565,5.002,-8.25,-0.132,-1.118,-2.23
-1.365,4.523,-7.17,0.113,-1.385,-2.381
-3.538,3.547,-6.199,0.397,-2.134,-2.422
-4.757,1.197,-4.712,0.774,-2.126,-2.011
-5.651,-2.291,-3.709,1.227,-2.02,-1.212
-5.922,-5.45,-2.594,1.808,-1.518,-0.261
-6.759,-7.584,-1.641,2.428,-0.877,0.539
-7.348,-9.426,-0.389,2.845,-0.511,1.072
-8.686,-10.16,-0.158,3.132,0.289,1.15
-8.238,-10.429,0.49,3.148,1.283,1.011
-7.598,-10.547,1.153,2.787,1.549,0.727
-6.753,-10.679,1.587,2.157,1.482,0.437
-5.684,-11.163,1.803,1.411,1.528,0.175
-4.573,-12.158,1.962,0.545,0.943,-0.136
-4.408,-13.071,1.929,-0.293,0.353,-0.6
-4.096,-14.098,2.129,-1.092,-0.2,-1.087
-4.861,-15.04,2.598,-1.758,-0.732,-1.654
-5.712,-15.253,3.189,-2.325,-1.119,-2.153
-6.263,-14.345,3.529,-2.746,-1.381,-2.248
-6.814,-12.396,2.748,-2.808,-1.077,-1.77
-6.42,-9.474,1.418,-2.596,-0.414,-0.635
-4.754,-3.452,-0.685,-2.353,0.369,1.074
-4.209,4.04,-3.697,-1.795,0.682,2.662
-2.848,6.535,-6.161,-1.207,1.717,3.173
-1.007,8.499,-7.734,-0.8,1.594,2.766
-0.423,9.511,-8.882,-0.478,0.981,1.609
-1.34,8.401,-9.406,-0.124,0.571,-0.275
-0.148,5.098,-8.584,0.059,0.409,-1.988
-0.757,5.165,-7.471,0.145,-1.329,-2.76
-2.993,4.065,-6.648,0.287,-2.013,-2.854
-4.154,2.175,-5.588,0.558,-1.775,-2.623
-4.076,-0.798,-4.636,1.046,-1.869,-1.932
-5.193,-3.651,-3.582,1.564,-1.525,-1.026
-5.886,-6.028,-2.778,2.206,-0.494,-0.021
-5.702,-8.234,-1.006,2.728,0.417,0.816
-6.196,-9.473,0.354,2.911,0.323,1.331
-6.835,-10.518,1.563,2.726,0.598,1.534
-6.879,-11.159,1.949,2.376,0.67,1.471
-6.607,-11.485,1.662,1.867,0.767,1.236
-6.178,-11.704,1.017,1.228,0.602,0.855
-5.863,-12.373,0.633,0.594,0.537,0.41
-5.65,-12.9,0.421,-0.07,0.299,-0.164
-5.537,-13.412,0.444,-0.795,0.052,-0.864
-5.631,-13.996,1.041,-1.548,-0.151,-1.552
-5.777,-14.172,1.148,-2.144,-0.333,-2.079
-6.039,-13.857,1.005,-2.543,-0.358,-2.252
-6.286,-12.944,0.782,-2.723,-0.221,-2.017
-5.89,-11.244,0.323,-2.71,0.421,-1.326
-5.111,-7.834,-0.686,-2.484,0.982,-0.18
-3.674,-2.115,-1.914,-2.232,1.623,1.435
-2.343,4.08,-3.725,-1.82,1.753,2.694
-0.394,6.369,-5.651,-1.426,1.802,2.909
0.62,8.308,-7.459,-1.004,1.132,2.222
1.028,9.504,-8.762,-0.661,0.419,0.852
0.649,7.827,-9.103,-0.316,-0.449,-0.94
0.285,5.016,-8.624,-0.081,-0.951,-2.448
-1.201,4.61,-7.894,0.125,-1.656,-2.968
-2.678,3.327,-7.315,0.435,-1.721,-2.716
-2.901,0.558,-5.886,0.833,-1.767,-1.984
-3.639,-2.049,-5.012,1.285,-2.055,-1.153
-4.795,-4.3,-2.87,1.956,-1.772,-0.227
-5.391,-6.499,-1.65,2.642,-1.38,0.634
-6.97,-8.303,0.05,3.198,-0.916,1.197
-8.464,-9.399,0.776,3.602,-0.511,1.38
-9.389,-10.19,1.75,3.777,0.491,1.267
-8.935,-11.157,1.307,3.402,1.16,0.954
-8.336,-11.479,1.603,2.707,1.633,0.469
-6.694,-11.842,1.813,1.72,1.62,-0.022
-5.488,-12.485,2.28,0.574,1.506,-0.504
-4.791,-13.177,2.524,-0.534,0.996,-0.997
-4.786,-14.878,2.789,-1.467,0.42,-1.516
-5.682,-16.221,2.973,-2.327,-0.1,-2.188
-6.735,-15.947,3.258,-2.954,-0.186,-2.477
-7.468,-13.674,2.949,-3.234,-0.407,-2.188
-7.668,-10.216,2.169,-3.177,0.31,-1.169
-5.43,-4.048,0.949,-3.02,1.112,0.422
-4.15,4.652,-1.154,-2.239,1.242,2.13
-1.177,6.966,-3.465,-1.611,1.291,2.58
0.702,8.6,-6.271,-1.094,1.213,2.318
3.093,8.558,-8.185,-0.721,0.569,1.623
1.782,7.742,-9.586,-0.29,-0.212,0.124
2.474,4.482,-9.477,-0.228,-0.896,-1.506
-0.549,5.907,-9.42,0.048,-1.734,-2.274
-1.808,4.675,-8.476,0.242,-1.522,-2.493
-3.994,3.813,-7.454,0.562,-1.752,-2.783
-4.024,1.6,-6.144,0.83,-1.695,-2.521
-5.283,-1.498,-5.254,1.172,-1.14,-1.834
-4.064,-4.5,-3.958,1.478,-0.268,-0.817
-4.366,-6.294,-2.424,1.889,-0.063,0.066
-4.566,-7.764,-1.034,2.144,0.24,0.921
-5.595,-9.081,0.261,2.402,0.288,1.499
-6.171,-9.919,1.089,2.561,0.409,1.738
-6.469,-11.046,1.526,2.598,0.237,1.681
-6.591,-12.077,1.452,2.433,0.159,1.317
-5.858,-13.54,1.084,1.935,0.172,0.724
-5.172,-14.295,0.483,1.153,0.189,0.028
-4.16,-14.802,0.586,0.143,0.192,-0.593
-4.126,-15.367,0.648,-0.922,0.023,-1.192
-3.944,-15.785,1.248,-1.894,-0.023,-1.66
-4.842,-15.384,2.038,-2.595,-0.138,-1.868
-5.957,-14.604,2.68,-2.997,-0.268,-1.845
-7.424,-12.539,2.156,-3.013,-0.121,-1.525
-7.566,-9.139,1.711,-2.768,0.295,-1.018
-5.492,-5.494,-0.486,-2.499,0.805,0.243
-4.24,2.438,-2.846,-1.943,0.762,1.789
-2.45,5.762,-5.149,-1.378,1.107,2.514
0.192,7.263,-6.849,-1.08,0.897,2.105
2.003,8.442,-8.733,-0.738,0.404,1.483
0.995,9.845,-8.747,-0.281,-0.378,0.016
0.304,5.812,-8.622,-0.155,-0.95,-1.805
-0.997,5.342,-8.114,-0.031,-1.472,-2.798
-2.469,4.425,-7.291,0.272,-1.584,-2.605
-4.519,2.025,-5.934,0.544,-1.578,-2.082
-5.722,-1.398,-4.83,0.859,-1.234,-1.112
-6.507,-4.3,-3.652,1.4,-0.589,0.026
-6.999,-7.113,-2.316,2.024,-0.029,1.09
-7.864,-9.153,-0.842,2.558,0.221,1.8
-8.169,-10.409,0.308,2.923,0.505,2.119
-8.35,-11.079,1.201,3.054,0.61,1.941
-7.924,-11.563,1.65,2.884,0.692,1.417
-7.091,-11.505,1.284,2.495,0.492,0.757
-6.003,-11.206,0.881,2.068,0.56,0.199
-4.909,-11.699,0.555,1.415,0.333,-0.224
-4.77,-12.604,0.98,0.521,0.009,-0.698
-4.617,-13.899,1.991,-0.499,-0.335,-1.221
-4.615,-15.144,3.23,-1.599,-0.772,-1.784
-5.119,-16.159,4.307,-2.724,-1.209,-2.204
-5.677,-15.231,4.622,-3.533,-1.158,-2.154
-5.655,-12.852,3.597,-3.801,-0.611,-1.381
-4.93,-8.107,1.962,-3.681,0.27,-0.018
-4.83,-0.629,-1.286,-3.01,0.886,1.783
-3.768,4.078,-2.996,-2.03,1.893,3.071
-1.339,6.658,-5.194,-1.188,1.54,3.015
0.086,8.285,-6.555,-0.607,1.701,2.305
1.991,7.721,-7.523,-0.117,0.863,1.244
2.504,4.882,-6.944,-0.029,-0.024,-0.42
1.871,4.883,-7.95,-0.134,-0.986,-1.879
0.022,5.312,-7.82,-0.046,-0.985,-2.425
-1.126,4.629,-7.375,0.155,-2.074,-2.657
-3.842,3.726,-7.351,0.461,-2.221,-2.77
-4.087,1.102,-6.159,0.882,-1.672,-2.272
-4.164,-2.201,-5.084,1.389,-1.674,-1.392
-5.025,-5.495,-3.322,1.97,-1.248,-0.347
-5.608,-8.278,-1.816,2.518,-0.657,0.535
-5.768,-10.368,0.134,2.879,-0.039,1.168
-6.263,-11.398,0.991,3.066,0.18,1.388
-6.523,-12.058,1.63,3.004,0.626,1.292
-5.96,-11.973,1.636,2.634,0.911,0.985
-5.455,-11.327,1.347,2.123,1.094,0.672
-4.918,-11.2,0.926,1.496,0.965,0.427
-4.911,-11.242,0.521,0.815,0.786,0.194
-4.764,-11.542,0.474,0.113,0.581,-0.124
-4.895,-12.172,0.714,-0.542,0.17,-0.546
-4.953,-13.031,1.195,-1.188,-0.164,-1.062
-5.33,-14.218,2.099,-1.78,-0.494,-1.652
-5.868,-15.25,2.962,-2.293,-0.705,-2.132
-6.203,-15.188,3.501,-2.66,-0.787,-2.168
-6.588,-13.248,2.586,-2.752,-0.49,-1.556
-6.056,-8.889,1.407,-2.593,0.16,-0.171
-4.538,0.994,-1.436,-2.38,0.445,1.631
-4.043,5.101,-3.882,-1.896,0.74,2.751
-1.947,8.165,-5.919,-1.397,1.567,2.409
0.5,10.139,-7.29,-0.942,1.258,1.516
0.661,9.793,-8.301,-0.699,0.464,-0.081
-0.107,4.523,-7.974,-0.416,0.227,-1.913
0.198,4.497,-7.714,-0.287,-0.162,-2.979
-1.257,3.849,-7.556,-0.183,-1.207,-2.63
-3.594,2.003,-6.792,-0.053,-1.542,-2.064
-4.398,-0.211,-6.142,0.277,-1.332,-1.173
-5.622,-2.91,-5.239,0.876,-1.443,-0.244
-6.533,-5.574,-4.076,1.53,-1.212,0.684
-7.809,-7.488,-2.871,2.297,-0.96,1.207
-7.945,-8.867,-1.595,2.905,-0.415,1.484
-8.155,-9.839,-0.303,3.29,-0.216,1.427
-7.885,-10.462,0.395,3.265,0.214,1.191
-7.369,-10.534,0.618,2.991,0.525,0.737
-6.424,-10.785,0.661,2.442,0.717,0.348
-5.964,-11.256,0.448,1.733,0.753,-0.064
-5.481,-11.847,0.19,0.951,0.612,-0.522
-5.066,-12.597,0.21,0.131,0.44,-1.055
-4.755,-13.537,0.881,-0.707,0.194,-1.704
-4.831,-14.803,2.031,-1.49,-0.148,-2.253
-5.09,-15.288,2.814,-2.173,-0.67,-2.727
-5.005,-15.376,3.206,-2.708,-0.857,-2.825
-4.602,-14.3,2.727,-2.967,-0.687,-2.285
-4.416,-11.185,0.622,-2.858,-0.188,-0.957
-3.481,-4.925,-1.775,-2.6,1.226,0.964
-1.331,3.174,-3.912,-2.194,1.569,2.675
-0.472,6.09,-5.834,-1.664,1.421,3.075
0.154,9.066,-7.664,-1.133,1.062,2.334
0.725,10.576,-8.282,-0.807,0.597,0.888
1.023,9.404,-8.599,-0.431,-0.684,-1.092
0.007,5.097,-8.678,-0.138,-1.285,-2.694
-1.195,4.883,-8.155,0.045,-1.81,-3.108
-2.616,3.45,-7.047,0.29,-2.138,-2.676
-3.712,0.445,-5.834,0.733,-2.176,-1.828
-5.307,-3.029,-4.754,1.422,-2.056,-0.813
-6.249,-5.898,-3.174,2.204,-1.264,0.191
-7.033,-8.079,-1.939,3.065,-0.173,1.024
-6.639,-10.324,0.121,3.649,0.858,1.671
-6.799,-11.492,1.695,3.884,1.113,1.934
-6.371,-12.241,2.906,3.561,1.254,1.816
-6.359,-12.974,3.411,2.946,1.251,1.358
-5.358,-13.403,3.588,2.047,0.987,0.721
-5.174,-13.515,3.038,1.062,0.426,-0.054
-4.7,-13.475,2.766,0.048,-0.024,-0.802
-4.614,-13.622,2.686,-0.876,-0.438,-1.445
-4.382,-14.076,2.699,-1.706,-0.963,-1.924
-4.741,-14.706,3.007,-2.341,-1.239,-2.176
-4.416,-15.378,3.382,-2.722,-1.12,-2.047
-5.311,-14.813,3.043,-2.957,-0.748,-1.451
-4.749,-12.335,2.49,-3.11,0.099,-0.356
-4.546,-5.387,1.042,-2.94,0.845,1.183
-4.481,2.065,-1.199,-2.337,1.969,2.43
-1.078,5.721,-2.702,-1.908,1.936,2.533
0.175,8.952,-4.938,-1.399,0.845,1.715
0.246,11.056,-6.743,-0.907,0.556,0.33
0.829,8.932,-7.94,-0.526,-0.01,-1.432
1.459,5.575,-8.095,-0.462,-1.382,-2.774
-2.855,5.486,-9.147,-0.138,-1.876,-3.085
-2.967,3.449,-8.25,0.194,-1.013,-2.572
-3.744,0.808,-7.512,0.778,-1.596,-1.787
-4.844,-2.454,-6.016,1.342,-1.394,-0.774
-5.894,-4.976,-4.813,1.967,-0.66,0.251
-6.284,-7.183,-2.983,2.494,0.264,1.255
-7.354,-8.196,-1.278,2.952,0.637,1.945
-8.147,-9.321,0.394,3.2,1.262,2.373
-8.245,-10.06,2.058,3.232,1.466,2.497
-7.618,-10.823,3.405,2.966,1.207,2.295
-6.576,-11.711,3.662,2.496,0.528,1.809
-6.044,-13.218,2.936,1.834,-0.045,1.069
-5.809,-14.583,2.179,0.919,-0.545,0.114
-5.998,-15.343,1.403,-0.165,-0.921,-1.028
-6.205,-16.47,1.556,-1.252,-0.867,-2.047
-7.249,-16.915,2.503,-2.27,-0.959,-2.898
-7.418,-16.096,3.826,-3.081,-0.701,-3.262
-7.394,-14.255,4.282,-3.553,-0.563,-2.94
-6.669,-11.201,3.64,-3.566,0.068,-1.863
-4.563,-6.504,1.794,-3.387,0.563,-0.207
-2.994,1.662,-1.668,-2.789,0.815,1.808
-1.231,5.168,-4.152,-2.077,0.92,3.006
0.001,7.092,-5.952,-1.579,0.85,2.774
1.279,8.286,-7.871,-1.101,0.486,1.915
0.369,8.354,-8.786,-0.674,-0.052,0.367
0.605,4.972,-8.37,-0.496,-0.185,-1.503
-0.292,4.606,-8.687,-0.377,-0.738,-2.675
-0.888,4.375,-8.717,-0.037,-1.159,-2.653
-2.689,3.075,-8.096,0.314,-1.572,-2.382
-3.739,0.875,-7.227,0.773,-1.612,-1.755
-5.004,-1.929,-6.23,1.326,-1.435,-0.92
-5.988,-4.0,-4.901,1.865,-0.978,-0.007
-6.95,-6.253,-3.098,2.341,-0.366,0.896
-7.747,-8.03,-0.989,2.643,0.169,1.616
-8.622,-9.203,0.266,2.831,0.344,1.968
-8.647,-10.135,1.682,2.827,0.581,1.96
-8.095,-10.85,2.383,2.743,0.58,1.688
-6.62,-10.957,2.297,2.564,0.545,1.316
-5.573,-11.545,1.442,2.251,0.138,0.934
-5.187,-12.264,0.742,1.698,0.207,0.457
-5.247,-12.812,0.355,0.924,0.048,-0.195
-5.133,-13.238,0.518,-0.019,0.169,-0.888
-5.137,-13.822,0.852,-0.971,0.075,-1.573
-5.447,-14.128,1.977,-1.841,0.006,-2.159
-5.566,-13.746,2.637,-2.439,-0.226,-2.463
-5.486,-13.327,2.869,-2.774,-0.219,-2.474
-6.158,-12.153,2.121,-2.835,-0.325,-1.987
-6.681,-10.37,1.268,-2.689,0.17,-1.24
-5.065,-7.48,-0.141,-2.553,0.751,-0.134
-3.625,-1.541,-2.484,-2.351,0.806,1.426
-2.405,3.509,-4.217,-1.871,1.154,2.732
0.063,5.414,-5.429,-1.495,0.736,2.52
1.124,7.815,-7.34,-1.159,-0.078,1.662
0.631,9.883,-8.333,-0.695,-0.611,0.164
0.457,7.987,-8.0,-0.278,-0.957,-1.693
-0.405,5.586,-8.303,-0.141,-1.917,-3.108
-2.589,4.736,-8.302,0.147,-1.732,-3.114
-3.725,2.205,-6.979,0.44,-1.353,-2.473
-4.848,-1.465,-6.0,0.81,-1.222,-1.295
-5.839,-4.529,-4.406,1.247,-0.692,-0.08
-6.876,-6.739,-2.452,1.772,-0.117,0.942
-7.206,-8.021,-0.108,2.208,-0.26,1.656
-8.147,-8.975,1.498,2.714,-0.404,1.94
-8.037,-9.573,2.765,3.108,-0.361,1.879
-8.05,-10.29,3.205,3.342,-0.439,1.601
-7.634,-10.836,2.803,3.277,-0.366,1.249
-7.572,-11.779,1.957,2.877,0.293,0.801
-6.99,-12.216,1.604,2.03,0.649,0.287
-6.962,-12.484,1.471,0.918,0.771,-0.368
-6.666,-12.862,1.876,-0.295,0.793,-1.079
-6.381,-13.336,2.99,-1.443,0.51,-1.801
-6.201,-13.96,4.236,-2.402,-0.017,-2.42
-6.038,-14.496,5.053,-3.048,-0.521,-2.71
-6.367,-14.286,5.0,-3.362,-0.814,-2.508
-6.719,-12.68,3.985,-3.324,-0.647,-1.759
-6.029,-9.47,2.456,-3.072,0.086,-0.391
-5.243,-2.682,-0.524,-2.599,0.981,1.496
-5.315,3.803,-3.162,-1.732,2.296,2.876
-0.332,6.793,-4.156,-1.072,2.221,3.022
-0.169,8.873,-5.945,-0.623,1.446,2.545
1.812,9.082,-7.134,-0.287,1.152,1.557
1.969,6.619,-7.261,-0.001,0.118,-0.229
2.659,4.442,-7.68,-0.155,-1.418,-1.724
-1.607,4.629,-8.528,-0.11,-1.475,-2.246
-1.112,3.91,-7.65,0.055,-1.628,-2.479
-3.887,2.952,-6.848,0.378,-2.298,-2.548
-4.625,0.953,-5.516,0.782,-2.142,-2.087
-5.383,-1.642,-3.59,1.32,-1.565,-1.319
-6.227,-3.85,-2.046,1.797,-1.244,-0.438
-7.082,-6.004,-0.433,2.233,-0.302,0.523
-7.651,-7.483,0.669,2.59,0.194,1.41
-8.386,-8.963,1.722,2.836,0.561,2.073
-8.967,-10.044,2.128,2.986,0.461,2.335
-8.792,-11.113,2.435,3.031,0.616,2.249
-8.404,-11.406,2.122,2.837,0.347,1.765
-7.925,-11.267,1.734,2.387,0.308,1.016
-7.491,-10.661,1.119,1.724,0.339,0.203
-6.967,-10.509,0.882,0.889,0.28,-0.465
-7.345,-10.791,0.907,-0.005,0.017,-1.114
-7.156,-11.46,1.344,-0.911,-0.21,-1.767
-7.108,-12.85,2.389,-1.757,-0.369,-2.321
-6.683,-14.382,3.629,-2.559,-0.761,-2.711
-6.076,-14.585,4.471,-3.23,-1.13,-2.799
-5.974,-13.262,4.69,-3.608,-1.524,-2.382
-6.303,-10.797,3.474,-3.404,-0.526,-1.357
-4.426,-7.828,1.847,-3.116,-0.004,0.161
-4.046,0.203,-1.325,-2.345,0.337,2.101
-3.736,5.2,-3.67,-1.526,1.129,3.415
-1.61,7.008,-5.765,-0.958,1.676,3.029
-0.083,8.2,-7.626,-0.668,1.031,2.249
-0.388,9.223,-8.84,-0.27,0.773,0.998
0.381,5.605,-8.581,-0.151,0.646,-0.834
0.307,3.916,-8.825,-0.015,-0.358,-2.374
-1.524,4.15,-8.826,0.226,-0.649,-2.566
-2.345,2.876,-7.677,0.344,-0.894,-2.591
-3.326,1.418,-6.823,0.555,-1.066,-2.447
-3.787,-0.656,-6.204,0.723,-1.134,-2.003
-3.997,-3.159,-5.512,0.983,-0.624,-1.269
-3.619,-5.716,-4.693,1.265,-0.501,-0.389
-4.147,-6.915,-3.761,1.599,-0.332,0.373
-4.551,-8.078,-2.908,1.768,-0.274,1.124
-5.34,-9.019,-1.789,1.89,-0.165,1.708
-5.306,-9.047,-0.992,1.866,-0.179,2.18
-5.129,-8.508,-0.473,1.83,-0.266,2.581
-4.876,-7.748,-0.252,1.771,-0.465,3.005
-4.615,-6.565,-0.045,1.703,-0.611,3.375
-4.296,-4.873,0.116,1.536,-0.843,3.809
-5.04,-2.538,0.275,1.337,-1.086,4.2
-5.891,0.35,0.59,1.065,-1.117,4.569
-6.267,3.703,0.875,0.771,-0.998,4.986
-6.627,8.84,0.781,0.608,-0.972,5.347
-6.751,11.743,0.959,0.668,-0.662,5.076
-4.998,12.826,1.089,0.455,-0.51,4.154
-4.25,13.524,0.888,0.206,-0.645,2.864
-3.725,12.988,0.863,0.007,-0.46,1.494
-2.946,10.063,1.048,-0.212,-0.021,0.235
-2.482,9.008,0.811,-0.453,0.239,-0.349
-3.239,9.1,0.704,-0.279,0.811,-0.292
-2.661,8.677,0.806,0.007,1.493,0.004
-2.14,8.752,0.813,0.242,1.47,0.11
-1.923,9.26,0.838,0.37,1.144,-0.047
-1.704,9.591,0.881,0.388,0.808,-0.418
-1.431,9.916,0.908,0.304,0.48,-0.831
-1.327,10.028,0.917,0.179,0.273,-1.126
-1.345,9.781,0.815,0.017,0.324,-1.261
-1.353,9.441,0.683,-0.145,0.605,-1.259
-1.287,9.245,0.491,-0.266,0.948,-1.177
-1.142,8.898,0.205,-0.339,1.194,-1.058
-0.993,8.66,-0.128,-0.382,1.272,-0.941
-0.854,8.601,-0.538,-0.382,1.143,-0.801
