ax,ay,az,gx,gy,gz
-1.695,-9.939,-2.529,-0.146,0.204,-0.075
-1.484,-9.593,-2.365,-0.174,0.203,-0.164
-1.258,-9.341,-2.222,-0.164,0.18,-0.183
-1.136,-9.213,-2.16,-0.132,0.13,-0.146
-1.149,-9.199,-2.207,-0.1,0.091,-0.08
-1.248,-9.269,-2.324,-0.082,0.076,-0.014
-1.347,-9.28,-2.414,-0.062,0.069,0.048
-1.394,-9.327,-2.439,-0.064,0.05,0.103
-1.415,-9.22,-2.37,-0.065,0.048,0.168
-1.178,-9.006,-2.198,-0.053,0.002,0.29
-0.733,-8.448,-1.865,-0.019,-0.128,0.502
-0.597,-7.897,-1.451,0.007,-0.309,0.804
-1.208,-7.326,-1.162,0.044,-0.351,1.242
-2.047,-7.217,-0.867,0.065,-0.296,1.723
-3.506,-7.838,-0.614,0.064,-0.355,2.054
-4.948,-9.809,0.093,-0.004,-0.486,2.164
-6.727,-12.626,0.883,-0.323,-0.643,1.728
-7.273,-15.158,2.475,-0.962,-0.868,0.663
-8.728,-16.167,4.057,-1.736,-1.395,-0.697
-8.781,-16.031,5.384,-2.421,-1.284,-1.752
-9.328,-13.736,5.121,-3.148,-0.613,-2.087
-8.69,-8.674,4.247,-3.97,0.929,-1.153
-9.163,0.476,2.629,-5.099,2.945,0.134
-4.393,8.742,2.114,-4.45,5.159,0.682
1.003,13.265,1.62,-3.024,3.971,0.874
3.754,15.831,-0.088,-1.65,2.412,0.363
4.811,16.253,-2.575,0.169,0.932,-0.746
7.283,11.828,-3.536,2.677,-1.305,-1.39
3.026,6.025,-4.674,3.712,-3.721,-0.914
-3.776,1.148,-3.879,3.829,-2.541,-0.543
-4.626,-3.675,-0.654,3.753,-0.85,-0.108
-3.885,-8.374,1.751,3.325,-0.53,0.052
-3.828,-12.726,2.431,2.711,0.471,-0.078
0.152,-15.299,2.313,1.764,1.554,-0.252
3.784,-14.615,0.328,0.847,1.476,-0.123
4.104,-12.739,-1.501,0.314,0.895,0.094
3.985,-10.652,-1.115,0.099,0.854,0.387
3.747,-8.385,-0.492,0.033,0.127,0.739
1.636,-7.061,-0.113,0.17,-0.646,1.127
0.248,-6.922,0.292,0.312,-0.879,1.561
-0.888,-7.59,0.22,0.361,-1.108,1.923
-2.374,-9.872,0.607,0.312,-1.395,2.164
-3.395,-15.337,2.677,-0.009,-1.821,1.815
-5.076,-20.305,6.504,-0.757,-2.158,0.46
-6.713,-21.76,9.903,-1.488,-2.491,-0.956
-8.95,-20.328,10.776,-2.473,-1.734,-1.005
-10.682,-13.979,10.733,-4.104,0.271,-0.209
-13.174,1.938,8.557,-5.607,2.661,0.084
-2.783,11.46,7.026,-4.784,3.433,1.048
-0.516,16.009,2.563,-4.039,2.457,1.738
2.618,19.502,-1.176,-2.931,1.873,1.04
5.832,19.062,-3.234,-0.888,-0.459,-0.284
6.434,10.699,-3.781,1.592,-3.731,-0.734
-5.309,6.443,-4.703,2.481,-4.286,-0.965
-5.553,0.729,-1.682,3.103,-2.609,-0.874
-5.892,-5.936,0.571,3.542,-2.294,-0.747
-5.358,-12.526,2.256,3.628,-1.218,-0.797
-1.242,-16.359,2.559,3.036,0.731,-0.607
2.367,-17.163,0.73,2.006,1.247,-0.338
3.064,-14.28,-1.176,1.314,1.173,-0.084
3.323,-12.022,-0.46,0.746,0.78,0.246
1.828,-9.724,-0.86,0.32,0.061,0.59
-0.056,-8.932,-0.579,0.205,-0.376,0.751
0.257,-10.126,0.281,0.041,-0.613,0.671
0.854,-13.809,2.046,-0.35,-1.131,0.238
1.024,-18.003,4.195,-0.946,-1.877,-0.499
0.236,-20.508,6.261,-1.749,-2.106,-0.946
-1.361,-20.736,7.485,-2.395,-1.611,-0.645
-4.546,-15.773,8.194,-3.575,0.336,0.912
-10.366,1.687,2.276,-4.564,2.616,1.496
-1.072,11.094,4.199,-3.491,4.273,1.767
2.054,17.441,1.685,-2.659,3.358,1.616
3.079,22.991,-2.203,-1.697,2.246,0.95
3.855,23.385,-4.072,0.38,-0.98,-0.867
5.492,9.731,0.752,2.662,-3.74,-1.447
-5.171,2.978,-1.648,3.029,-4.623,-1.298
-7.025,-2.431,-1.042,3.65,-2.846,-0.972
-5.113,-10.096,1.519,3.769,-1.808,-0.797
-2.925,-15.524,1.358,3.222,-0.075,-0.653
0.899,-16.621,0.411,2.352,1.327,-0.292
1.643,-15.161,-1.362,1.53,1.285,-0.127
1.406,-13.252,-1.006,0.813,1.02,0.062
0.022,-10.338,-0.83,0.418,0.509,0.168
-0.351,-8.694,0.077,0.25,0.228,0.335
-0.379,-8.275,0.575,0.24,-0.401,0.193
1.409,-10.779,1.77,0.264,-0.756,-0.066
3.434,-14.493,3.047,0.18,-1.953,-0.56
3.532,-18.169,4.663,-0.217,-2.869,-0.87
2.155,-19.992,6.065,-0.639,-2.446,-0.752
-0.089,-19.955,6.125,-1.494,-1.263,0.091
-1.918,-11.271,6.518,-3.318,1.007,1.541
-8.325,3.193,5.778,-4.246,3.812,1.923
0.343,9.786,8.724,-3.355,3.086,2.005
-2.532,15.956,4.284,-2.729,1.051,1.34
-1.71,20.459,2.441,-1.228,-0.673,0.379
-4.312,15.623,1.659,1.622,-3.99,-1.115
-1.664,2.705,0.852,3.438,-6.278,-1.316
-11.076,-3.107,-3.589,3.502,-3.935,-1.299
-6.048,-9.006,-0.409,3.607,-1.47,-0.902
-4.972,-15.088,1.428,3.156,-0.27,-0.73
-1.377,-17.115,0.859,2.074,1.241,-0.547
0.829,-15.104,0.772,1.175,2.023,-0.356
1.985,-12.103,0.397,0.58,1.475,-0.217
1.004,-10.484,0.367,0.331,0.566,-0.118
0.97,-8.598,0.268,0.145,0.065,-0.198
1.431,-8.547,0.939,0.163,-0.256,-0.315
2.725,-9.526,1.617,0.275,-1.282,-0.569
4.892,-13.749,3.261,0.181,-2.362,-0.783
4.545,-18.352,4.188,-0.303,-3.011,-0.72
2.634,-22.262,5.542,-1.015,-1.918,-0.222
0.667,-18.239,6.901,-2.801,0.208,1.325
-7.64,-0.61,2.87,-4.567,2.74,1.819
4.104,8.111,8.468,-3.878,2.998,2.135
-1.111,16.434,6.555,-3.084,1.985,1.428
-0.802,24.792,3.35,-1.834,0.021,0.611
-3.515,22.124,2.659,0.923,-3.248,-1.227
1.22,3.741,7.117,3.615,-5.331,-2.018
-12.409,-4.343,0.339,3.601,-4.089,-2.499
-5.96,-10.858,1.461,3.495,-1.317,-2.236
-2.738,-16.054,3.224,2.897,0.223,-2.033
1.191,-16.848,1.747,1.837,1.96,-1.545
3.445,-14.718,0.893,0.869,2.378,-0.896
2.458,-11.322,0.454,0.381,1.661,-0.522
1.534,-8.941,0.278,0.141,0.678,-0.13
-0.617,-8.43,0.312,0.19,-0.182,0.09
-1.091,-8.505,0.319,0.257,-0.41,0.131
-0.2,-9.058,0.43,0.304,-0.703,0.028
2.611,-10.203,1.521,0.209,-0.946,-0.069
5.222,-14.041,2.154,-0.078,-1.966,-0.078
5.938,-19.217,3.191,-0.696,-1.837,0.157
4.049,-21.482,5.083,-1.647,-0.281,0.784
3.27,-10.961,9.08,-3.42,1.679,2.287
-2.325,1.637,10.918,-4.252,3.915,2.678
-2.117,8.701,15.307,-3.441,3.145,2.339
-6.663,19.654,10.584,-2.584,2.192,1.469
-6.437,25.403,9.006,-0.754,-0.67,0.263
-10.757,14.955,6.461,2.164,-3.655,-1.668
-8.682,0.869,5.444,4.086,-4.803,-2.219
-10.956,-5.128,0.894,4.072,-1.904,-2.024
-6.447,-12.923,5.789,4.053,0.422,-1.637
-2.969,-16.652,6.567,3.252,2.287,-1.328
1.181,-16.53,5.111,2.089,3.89,-0.958
3.2,-13.723,3.602,0.979,3.378,-0.699
2.641,-10.564,2.72,0.399,2.044,-0.601
2.441,-8.342,1.304,0.171,0.778,-0.354
0.924,-8.203,0.562,0.173,-0.041,-0.135
1.896,-8.857,1.394,0.204,-0.803,-0.129
2.841,-11.174,3.337,0.216,-1.882,-0.35
4.363,-15.663,6.045,-0.082,-3.179,-0.417
2.213,-20.697,7.821,-0.866,-3.72,-0.372
0.159,-22.21,9.996,-2.225,-2.2,0.235
-1.625,-9.704,12.329,-4.012,-0.056,1.679
-1.055,3.158,14.183,-4.611,2.684,2.176
-1.449,10.989,15.286,-3.693,2.416,1.952
-3.07,20.378,9.975,-2.703,2.079,1.44
-2.681,25.068,6.994,-0.68,-0.259,0.466
-4.914,13.154,4.015,1.996,-3.209,-1.269
-8.766,1.05,0.657,3.453,-4.95,-1.948
-9.687,-4.811,-2.376,3.402,-2.47,-1.803
-5.394,-11.524,1.682,3.633,-1.007,-1.521
-2.479,-15.569,2.526,2.972,0.522,-1.314
0.837,-15.94,2.111,1.974,1.977,-1.04
2.937,-14.517,1.54,1.056,2.133,-0.593
2.824,-12.154,1.045,0.502,1.224,-0.358
2.263,-9.879,0.59,0.03,0.532,-0.14
1.046,-9.142,0.375,-0.092,-0.208,0.036
1.022,-9.387,0.621,-0.121,-0.862,0.1
1.458,-10.496,0.991,-0.254,-1.494,-0.019
2.922,-13.877,2.055,-0.519,-2.175,-0.305
3.056,-19.317,3.256,-1.048,-2.443,-0.466
0.846,-23.443,5.143,-1.62,-1.337,-0.286
0.016,-15.981,7.464,-3.25,0.812,1.481
-4.71,-0.679,3.235,-4.126,3.029,1.909
0.332,5.728,5.895,-3.432,2.78,1.846
-2.281,15.731,1.019,-2.808,2.009,1.437
-2.157,23.592,-1.012,-1.651,-0.149,0.83
-5.495,17.66,-3.098,0.797,-3.267,-1.327
-3.71,2.041,1.191,2.72,-5.212,-2.103
-10.193,-4.341,-2.264,2.796,-3.77,-2.117
-7.95,-10.797,1.427,3.133,-1.716,-1.956
-4.066,-15.353,2.551,2.739,0.463,-1.642
0.119,-16.654,1.951,2.067,1.745,-1.286
2.193,-15.212,1.587,1.155,2.219,-0.822
2.173,-11.768,1.384,0.628,2.005,-0.469
2.173,-9.726,1.502,0.225,1.071,-0.062
0.099,-8.691,0.484,0.075,0.12,0.136
-0.483,-8.419,0.547,0.029,0.128,0.289
0.05,-9.028,0.378,0.084,-0.232,0.225
1.73,-11.524,1.262,-0.007,-0.773,-0.01
3.521,-16.0,2.3,-0.383,-1.693,-0.427
3.621,-21.053,4.316,-0.877,-2.216,-0.807
1.635,-23.508,6.428,-1.56,-1.47,-0.462
-0.505,-13.329,8.989,-3.33,0.362,1.336
-1.404,2.281,8.756,-3.863,2.526,1.766
-1.672,10.642,6.928,-3.194,1.765,1.742
-1.557,20.207,1.117,-2.736,1.846,1.756
-1.814,25.882,-2.337,-1.452,-0.133,1.165
-3.902,16.403,-4.912,1.083,-2.825,-0.703
-6.114,2.206,-4.963,2.575,-4.574,-1.0
-7.823,-4.026,-3.857,2.871,-2.677,-0.771
-6.807,-10.714,0.364,3.43,-1.608,-0.678
-3.259,-15.139,1.367,3.05,-0.079,-0.716
1.152,-15.733,0.971,2.386,1.129,-0.739
3.055,-14.687,0.202,1.525,1.208,-0.65
3.328,-12.306,-0.158,0.965,0.932,-0.357
2.04,-9.98,-0.927,0.452,0.402,-0.039
1.197,-8.955,-0.717,0.258,0.117,0.269
0.516,-9.02,-0.446,0.082,-0.315,0.492
1.241,-10.077,0.209,-0.066,-0.692,0.457
3.182,-13.63,1.595,-0.321,-1.355,0.05
4.74,-19.537,4.062,-0.755,-2.294,-0.804
2.413,-23.599,7.084,-1.35,-2.973,-1.25
0.3,-23.744,9.069,-2.39,-1.162,-0.274
2.759,-6.136,8.903,-4.012,0.886,0.662
8.261,6.052,9.694,-3.873,2.619,1.053
6.659,17.214,4.536,-3.328,2.088,1.504
6.351,26.003,-0.461,-2.325,1.368,1.499
4.702,28.437,-2.791,-0.4,-1.292,0.235
-1.893,10.743,-2.159,2.259,-3.752,-0.989
-10.443,0.614,-3.462,3.183,-4.345,-1.286
-9.794,-6.901,0.064,3.636,-2.048,-1.055
-6.539,-13.362,2.586,3.566,-0.025,-0.79
-1.664,-16.425,3.182,2.805,1.333,-0.608
1.813,-15.571,1.89,1.851,2.182,-0.296
3.443,-14.025,0.947,0.96,1.981,-0.081
3.382,-11.796,0.464,0.443,0.984,-0.062
2.712,-9.772,0.305,0.142,0.222,0.043
1.673,-9.063,0.216,0.081,-0.445,0.091
1.528,-10.089,1.02,0.022,-1.031,0.023
2.088,-12.65,2.253,-0.228,-1.822,-0.325
2.354,-16.218,3.906,-0.853,-2.784,-0.797
1.131,-20.235,6.012,-1.473,-3.335,-1.335
-0.957,-22.135,7.575,-2.08,-2.816,-1.334
-4.569,-18.587,6.633,-3.223,-0.617,0.029
-4.023,1.135,3.937,-4.711,1.768,0.743
4.178,11.175,5.56,-3.739,3.205,1.284
4.119,19.181,2.35,-3.098,2.219,1.448
3.535,25.487,-2.01,-2.312,0.912,1.323
3.819,24.59,-2.034,-0.431,-1.737,0.09
-0.247,6.815,-0.562,2.214,-4.291,-0.39
-11.009,-1.127,-2.947,2.762,-4.577,-0.547
-9.918,-6.609,-2.105,3.296,-2.641,-0.303
-7.607,-12.576,1.05,3.617,-1.139,-0.281
-4.359,-14.78,0.391,3.178,-0.192,-0.484
-1.914,-14.9,0.176,2.427,1.128,-0.493
0.778,-13.732,-0.574,1.598,1.217,-0.428
0.942,-12.289,-0.325,1.035,1.043,-0.3
1.351,-10.179,-0.881,0.517,0.546,-0.169
1.203,-9.77,0.357,0.292,0.31,0.005
1.427,-10.039,0.851,0.059,-0.565,0.099
1.115,-10.992,0.885,-0.346,-1.14,-0.005
1.807,-14.0,2.187,-0.688,-1.699,-0.289
1.203,-17.812,3.781,-1.195,-2.217,-0.623
-0.703,-22.409,6.033,-1.79,-2.133,-0.942
-3.076,-22.107,7.716,-2.718,-0.417,-0.284
-3.824,-8.963,9.009,-4.204,1.823,0.824
0.17,4.106,12.479,-3.754,4.113,1.147
1.838,10.874,13.366,-2.669,2.993,1.036
0.271,19.656,7.322,-2.206,3.313,1.028
4.505,24.718,4.042,-1.053,1.515,0.379
1.451,15.831,1.927,1.453,-1.978,-0.588
-6.96,6.078,-1.978,2.346,-4.601,-0.769
-9.506,1.539,-2.868,2.732,-2.643,-0.483
-6.797,-4.033,1.197,3.759,-2.557,-0.542
-7.28,-11.479,3.361,4.146,-1.406,-0.67
-3.347,-16.273,3.134,3.538,0.25,-0.85
0.586,-16.852,1.831,2.435,1.509,-0.738
2.095,-14.897,-0.146,1.531,0.956,-0.613
1.912,-13.011,-0.46,0.759,0.758,-0.256
0.923,-10.306,-1.02,0.284,0.122,-0.121
0.894,-8.974,-0.088,0.132,-0.069,0.016
1.447,-9.738,0.693,0.102,-0.82,-0.007
2.054,-12.772,2.723,-0.203,-1.058,-0.144
3.02,-16.606,4.618,-0.683,-1.738,-0.403
1.292,-20.906,6.929,-1.356,-2.105,-0.592
-1.182,-22.015,7.986,-2.453,-0.602,-0.046
0.616,-9.356,8.952,-4.123,1.514,1.091
1.57,3.139,7.234,-4.111,3.84,1.97
3.73,10.72,4.986,-3.658,3.828,1.863
5.425,20.325,0.543,-2.961,4.081,1.671
8.816,26.943,-2.133,-1.392,1.727,0.98
3.342,19.025,-3.484,1.303,-1.765,-0.502
-2.313,9.462,-1.852,2.627,-4.663,-1.51
-5.63,3.006,0.713,3.549,-3.877,-1.301
-6.569,-4.316,2.665,4.063,-3.236,-1.012
-7.408,-12.142,5.542,4.04,-1.467,-0.958
-3.703,-16.552,5.853,3.188,0.517,-0.58
0.467,-17.058,4.289,2.072,1.841,-0.278
1.953,-14.644,1.94,0.966,1.74,-0.04
2.245,-12.262,1.328,0.446,0.637,0.084
0.729,-9.712,-0.18,0.105,0.145,0.301
-0.39,-9.106,-0.501,0.051,-0.173,0.395
-1.264,-9.214,-0.659,0.052,-0.553,0.41
-1.385,-9.867,-0.537,0.09,-0.594,0.325
0.251,-13.829,0.53,-0.234,-0.475,0.009
2.012,-20.72,2.982,-0.958,-1.204,-0.652
-0.76,-26.114,5.504,-1.811,-0.709,-1.121
-2.433,-24.698,7.9,-3.253,1.244,-0.21
-1.952,-6.525,4.321,-4.785,2.169,0.488
0.718,-0.886,6.853,-4.283,2.776,0.582
1.987,11.638,2.729,-3.654,2.961,0.703
7.245,22.621,-0.964,-2.514,1.733,0.744
6.732,25.431,-3.505,-0.23,-1.759,-0.649
2.205,7.889,0.334,2.018,-3.576,-1.542
-3.844,4.372,-2.254,2.553,-4.152,-1.533
-6.355,-2.435,-0.826,3.139,-3.293,-1.208
-8.683,-10.153,0.206,3.25,-2.133,-0.949
-6.245,-15.54,0.296,2.707,-0.198,-0.672
-2.078,-16.023,0.145,2.161,1.072,-0.522
-0.301,-14.471,-0.242,1.443,1.501,-0.397
0.325,-13.012,0.579,0.861,1.199,-0.224
0.314,-10.637,0.6,0.487,0.734,-0.042
0.476,-9.582,1.083,0.251,0.407,0.229
-0.322,-9.284,0.837,0.11,-0.313,0.369
-0.395,-9.99,0.792,-0.08,-0.626,0.432
0.078,-12.087,1.105,-0.41,-1.112,0.229
1.492,-16.791,2.936,-0.973,-1.441,-0.323
0.838,-23.847,4.723,-1.821,-1.79,-1.093
-2.268,-26.335,6.487,-2.507,-0.842,-1.122
-3.831,-12.934,8.872,-4.093,1.145,0.592
-3.117,-0.35,7.187,-4.381,2.129,1.409
-0.136,8.113,5.995,-4.022,3.306,1.532
2.146,22.498,1.373,-3.063,3.461,1.57
5.983,30.619,-2.068,-2.046,1.407,1.151
2.554,19.627,-3.573,0.528,-2.086,-0.78
-1.02,6.584,-2.362,1.89,-3.319,-1.456
-6.708,0.4,-3.421,2.926,-3.54,-1.168
-6.983,-8.465,-0.622,3.356,-2.707,-0.474
-7.91,-14.77,0.551,3.488,-1.545,-0.186
-3.126,-17.225,-0.762,2.771,0.287,0.021
-1.171,-15.07,-1.557,2.106,0.997,0.05
-0.192,-12.675,-1.194,1.273,0.593,0.152
-1.789,-10.649,-1.419,0.765,-0.028,0.165
-1.827,-9.743,-0.75,0.416,0.214,0.307
-1.457,-9.434,0.017,0.286,-0.013,0.252
-0.709,-10.971,1.59,0.115,-0.415,-0.018
0.931,-14.728,3.239,-0.248,-1.17,-0.566
0.931,-18.708,5.025,-0.946,-1.808,-1.2
-0.207,-22.144,5.829,-1.879,-1.491,-1.371
-1.818,-22.286,7.052,-2.931,0.228,-0.612
1.001,-3.803,6.796,-4.602,2.243,0.86
5.404,6.312,8.576,-4.201,2.832,1.641
7.487,14.928,3.469,-3.926,3.729,1.829
9.569,23.77,-0.26,-2.879,3.116,1.558
11.21,29.211,-3.231,-1.306,-0.208,0.531
3.253,13.567,-3.666,1.165,-3.7,-1.201
-4.355,6.517,-6.665,1.606,-3.958,-1.912
-7.033,0.351,-3.219,2.484,-4.088,-1.888
-7.459,-5.912,-1.322,2.813,-3.081,-1.676
-7.087,-11.947,-0.171,2.65,-0.717,-1.371
-2.002,-13.579,-0.371,2.189,1.152,-0.811
-0.487,-13.133,-0.478,1.834,1.641,-0.402
0.881,-11.828,-0.306,1.49,1.758,-0.093
0.763,-11.255,0.702,1.177,0.809,0.006
0.274,-10.422,0.741,0.902,-0.014,-0.012
-0.47,-10.441,0.381,0.606,-0.216,-0.102
0.954,-11.125,0.523,0.216,-0.473,-0.268
1.646,-12.599,1.296,-0.239,-1.183,-0.624
3.247,-18.693,3.653,-0.669,-1.667,-0.95
1.406,-23.71,5.028,-1.316,-1.175,-0.973
1.132,-19.57,9.041,-3.029,0.652,0.491
-2.463,-1.371,5.414,-4.547,2.484,1.096
-0.077,3.524,7.176,-3.764,1.322,1.024
-3.149,15.427,0.97,-3.67,2.227,0.836
-0.209,25.314,-1.905,-2.766,0.852,0.754
-3.581,22.804,-5.76,-0.07,-2.641,-0.575
-2.98,4.174,-1.847,2.685,-4.493,-0.873
-7.439,-1.019,-4.205,2.977,-2.458,-0.356
-5.544,-8.288,-0.065,3.703,-2.482,0.216
-6.842,-13.724,1.304,3.689,-1.341,0.277
-2.94,-15.711,1.15,2.94,0.529,-0.005
-1.038,-14.671,0.281,1.997,0.35,-0.41
-0.289,-12.827,-0.056,1.267,0.013,-0.674
-0.95,-10.885,-0.391,0.734,-0.394,-0.785
-1.203,-9.945,-0.097,0.41,-0.641,-0.752
-1.489,-9.3,0.136,0.113,-0.956,-0.567
-1.259,-9.551,0.407,-0.141,-0.838,-0.336
0.188,-11.348,0.92,-0.397,-1.048,-0.291
2.754,-16.598,2.581,-0.795,-1.127,-0.493
2.608,-22.082,6.548,-1.514,-1.236,-0.656
-0.723,-24.244,9.091,-2.825,0.222,-0.237
4.664,-6.798,10.367,-4.413,2.135,0.933
8.17,3.241,11.713,-4.138,2.316,1.416
8.039,14.339,6.629,-3.884,2.636,1.272
8.877,25.66,-0.111,-2.676,1.585,0.944
8.467,31.53,-1.541,-0.46,-1.428,-0.08
-0.096,13.264,-2.956,1.972,-3.962,-1.75
-5.25,2.465,-5.272,2.462,-3.386,-2.323
-6.956,-5.086,-1.471,3.173,-2.127,-1.994
-4.901,-11.99,1.963,2.974,-0.513,-1.458
-1.568,-16.184,0.656,2.171,1.361,-0.861
1.839,-14.978,0.649,1.393,2.437,-0.337
2.425,-12.258,0.337,0.923,1.778,-0.162
1.363,-10.644,-0.378,0.527,0.682,-0.093
-0.812,-9.686,-0.86,0.363,0.331,-0.174
-0.333,-8.863,-0.612,0.408,-0.007,-0.167
-1.03,-8.993,-0.767,0.491,-0.551,-0.117
-1.241,-9.701,-0.056,0.342,-0.647,-0.012
0.075,-11.051,0.557,0.052,-1.133,-0.066
2.016,-14.029,1.917,-0.355,-1.16,-0.269
3.344,-19.868,4.418,-0.948,-1.541,-0.605
1.448,-22.608,7.189,-1.931,-0.516,-0.488
-0.461,-14.098,9.658,-3.633,1.486,0.825
-0.811,0.683,7.243,-4.044,2.566,1.488
-0.102,9.015,5.448,-3.676,2.147,1.159
-2.319,21.594,-0.31,-2.849,1.119,0.726
-1.751,29.266,-3.792,-1.113,-1.351,0.082
-4.562,20.842,-4.329,1.714,-4.439,-1.938
-5.366,4.661,-2.383,3.062,-4.637,-2.764
-7.583,-3.006,-0.501,3.577,-2.818,-2.196
-5.285,-11.466,3.528,3.55,-1.006,-1.479
-3.71,-16.938,4.343,2.871,0.941,-1.007
1.507,-16.591,1.969,1.727,2.506,-0.372
2.185,-13.8,1.614,0.787,1.94,-0.191
1.5,-11.296,-0.229,0.198,0.675,-0.229
-0.059,-9.588,-1.199,0.034,0.375,-0.215
-0.424,-8.977,-1.231,0.03,0.027,-0.219
-1.11,-8.901,-1.076,0.103,-0.295,-0.188
-1.232,-9.131,-0.667,0.14,-0.45,-0.101
-0.115,-10.099,-0.146,0.107,-0.675,-0.145
2.178,-13.356,1.231,-0.118,-0.762,-0.344
4.125,-18.789,3.198,-0.739,-1.306,-0.655
2.181,-22.237,6.154,-1.696,-0.928,-0.452
2.299,-17.16,10.413,-3.407,0.98,1.201
2.612,-1.526,7.453,-4.19,1.696,2.136
3.783,6.51,5.411,-4.056,1.641,1.732
1.085,17.678,-0.458,-3.211,1.437,1.393
3.925,25.925,-4.637,-1.589,0.101,0.962
-0.328,22.385,-7.896,1.002,-3.392,-1.12
-4.289,7.282,-4.82,2.558,-4.048,-2.232
-7.585,0.627,-3.064,3.122,-3.355,-1.627
-7.367,-6.083,1.524,3.291,-1.806,-0.968
-7.456,-12.45,3.793,2.838,-0.348,-0.741
-3.902,-14.385,2.397,2.12,1.826,-0.344
-0.647,-14.358,1.824,1.415,2.316,-0.109
-0.141,-12.285,0.218,0.9,2.132,-0.095
1.255,-11.322,-0.653,0.556,1.412,-0.124
0.289,-9.773,-1.568,0.396,0.926,-0.199
0.978,-9.335,-1.236,0.254,0.245,-0.235
0.56,-9.206,-1.302,0.085,-0.439,-0.246
0.523,-10.204,-0.582,-0.14,-1.042,-0.267
0.303,-12.376,-0.165,-0.432,-1.288,-0.454
2.109,-18.089,0.684,-0.87,-1.361,-0.831
1.921,-23.406,3.685,-1.34,-0.406,-0.867
2.476,-20.723,9.154,-2.986,1.549,0.806
-1.187,-2.558,4.351,-3.694,2.404,1.759
3.262,4.686,1.956,-3.727,2.374,1.242
2.361,15.753,-2.091,-3.285,2.745,1.074
3.792,25.594,-7.25,-2.383,0.561,0.859
0.307,26.487,-14.43,-0.063,-2.062,-1.181
1.931,10.856,-8.98,1.488,-3.63,-2.431
-4.642,5.946,-6.471,2.339,-3.684,-2.001
-5.524,-0.631,-2.597,2.888,-3.809,-1.525
-7.603,-5.744,-0.814,3.123,-1.984,-1.388
-3.893,-10.446,1.692,2.966,-0.487,-1.043
-2.559,-12.954,0.729,2.549,0.578,-0.769
-0.299,-13.434,0.506,1.947,1.123,-0.466
-0.371,-12.284,-0.239,1.294,1.221,-0.351
0.482,-11.633,0.316,0.623,0.83,-0.176
-0.741,-10.62,-0.154,0.18,0.296,-0.093
0.093,-10.734,0.203,-0.2,0.252,-0.088
0.989,-12.646,1.43,-0.449,-0.17,-0.337
2.33,-17.62,3.229,-0.734,-0.743,-0.806
1.101,-22.082,5.411,-1.477,-0.655,-1.13
2.17,-21.816,9.24,-2.995,0.512,0.072
3.452,-3.562,6.805,-4.436,1.468,1.15
5.135,4.224,4.58,-4.417,1.239,0.705
2.272,14.594,-1.706,-4.145,1.33,0.399
4.434,22.979,-7.338,-2.877,0.307,0.441
0.147,25.244,-12.918,-0.669,-1.783,-1.096
-3.526,9.092,-11.071,1.537,-2.841,-2.312
-7.991,4.023,-9.598,2.259,-2.37,-1.863
-6.611,-0.703,-4.516,2.793,-1.995,-1.281
-7.948,-4.788,-0.831,2.614,-0.746,-1.101
-4.33,-7.774,0.889,2.28,0.4,-0.78
-2.235,-10.027,0.946,1.791,0.589,-0.5
-0.669,-10.977,0.369,1.34,0.853,-0.164
0.173,-12.084,-0.518,0.85,0.708,0.021
0.479,-12.007,-1.336,0.53,0.613,0.098
0.224,-11.529,-1.672,0.258,0.238,0.004
0.884,-11.446,-1.132,0.124,0.263,-0.237
2.862,-14.388,0.341,-0.102,-0.248,-0.588
3.429,-19.379,2.794,-0.647,-0.589,-0.803
1.021,-21.676,5.941,-1.802,-0.081,-0.577
1.016,-14.07,9.869,-3.605,1.864,0.857
1.199,-3.532,11.098,-3.706,1.96,1.824
1.884,5.187,8.558,-3.755,2.119,1.332
-0.152,17.187,2.966,-2.897,1.868,0.743
3.395,24.436,-2.18,-0.996,-0.533,0.101
-0.447,18.958,-6.83,1.515,-3.849,-1.976
-3.6,10.37,-7.514,2.152,-3.937,-3.304
-7.127,4.668,-6.482,2.749,-3.616,-2.991
-5.974,-2.088,-2.373,3.013,-1.839,-2.321
-6.582,-6.806,0.935,2.705,0.609,-1.71
-2.647,-9.081,2.342,2.193,2.924,-0.633
-0.498,-10.965,1.641,1.803,3.373,0.393
-0.129,-11.059,1.633,1.641,3.484,1.375
-0.016,-11.863,1.136,1.235,2.812,1.88
-0.429,-12.607,0.61,0.885,2.22,1.92
-0.341,-12.401,0.127,0.616,1.502,1.69
-0.086,-11.719,0.201,0.461,0.871,1.199
1.133,-11.612,0.416,0.212,0.253,0.555
3.456,-14.115,1.659,-0.063,-0.592,-0.032
4.667,-20.974,3.907,-0.648,-1.465,-0.536
2.871,-24.734,7.369,-1.967,-0.799,-0.422
1.93,-13.821,11.214,-3.72,1.049,1.023
3.147,-1.255,12.328,-3.687,1.216,1.99
3.756,8.143,10.341,-3.674,0.99,1.46
0.471,21.932,4.414,-2.926,1.275,1.07
2.018,30.209,-0.746,-0.824,-1.165,0.466
-2.091,20.655,-4.398,1.68,-4.1,-1.559
-5.293,6.912,-4.346,2.125,-4.293,-2.821
-9.433,0.717,-4.865,2.638,-3.06,-2.457
-4.825,-7.295,-0.675,2.633,-1.428,-1.877
-4.138,-12.412,-0.081,2.071,0.313,-1.568
1.673,-14.013,-0.663,1.316,1.482,-0.904
1.349,-12.421,-2.275,0.82,1.631,-0.505
2.419,-11.968,-0.962,0.378,1.026,-0.119
-0.705,-10.046,-2.214,0.131,-0.342,-0.027
-1.161,-9.305,-0.992,-0.097,-0.324,0.083
-1.843,-9.388,-0.659,-0.22,-0.707,-0.077
1.266,-12.258,1.283,-0.565,-1.302,-0.457
2.452,-17.826,4.932,-1.304,-2.712,-1.236
-0.278,-24.095,12.54,-2.655,-4.05,-2.124
-4.657,-27.91,20.036,-4.377,-3.417,-2.435
-6.675,-10.475,21.304,-6.003,-1.269,-0.908
-4.473,3.774,21.547,-5.582,-1.781,-0.111
-5.058,17.235,14.257,-4.737,-1.003,0.002
-2.246,28.707,4.205,-2.985,0.153,0.75
-3.02,34.609,-2.484,-0.182,-2.24,0.97
-4.54,16.921,-1.399,2.566,-3.841,-0.337
-10.394,4.545,-1.33,3.423,-2.088,-0.75
-9.867,-5.529,3.505,3.877,-0.976,-0.193
-10.131,-11.433,5.881,3.749,0.138,-0.299
-3.496,-13.793,4.532,2.892,2.335,-0.367
-0.459,-13.387,1.484,1.993,1.915,-0.626
1.227,-12.227,-0.499,1.093,1.59,-0.594
-0.144,-9.837,-1.621,0.581,0.848,-0.471
0.139,-9.225,-1.075,0.322,0.034,-0.166
-1.081,-9.207,-0.565,0.137,-0.541,-0.012
-0.113,-10.25,0.556,-0.088,-0.588,-0.007
1.563,-13.251,1.528,-0.418,-1.506,-0.376
2.17,-18.656,4.703,-1.161,-2.414,-0.929
-0.722,-25.483,11.353,-2.392,-3.159,-1.661
-6.657,-26.924,17.529,-4.152,-2.502,-1.875
-9.617,-9.852,20.386,-5.775,-0.434,-0.959
-5.373,4.649,20.999,-5.226,-0.701,-0.516
-4.037,15.796,15.014,-4.461,-0.045,-0.426
2.323,28.591,5.263,-2.991,0.947,0.564
3.967,36.388,-2.351,-0.312,-1.332,1.307
-0.695,22.431,-3.547,2.56,-3.589,1.126
-10.748,10.036,-1.93,3.264,-2.428,1.362
-14.412,3.334,2.829,3.924,-1.657,2.07
-17.653,-4.007,7.829,4.28,-1.359,2.0
-13.548,-11.392,8.822,3.902,0.605,1.512
-6.72,-14.867,6.994,3.272,1.49,0.933
-2.449,-14.862,3.332,2.54,1.281,0.563
-0.438,-14.378,0.723,1.865,1.332,0.328
-0.109,-13.006,-1.541,1.29,0.854,0.118
-0.522,-11.388,-1.529,0.819,0.534,0.103
-0.623,-9.466,-2.034,0.402,0.224,0.084
0.056,-9.584,-1.362,0.243,0.285,0.033
1.257,-12.162,-0.077,0.137,-0.14,-0.304
2.295,-17.78,2.319,-0.405,-0.888,-0.824
0.853,-22.935,5.444,-1.342,-0.864,-1.188
-0.294,-24.177,9.121,-2.751,0.567,-0.522
2.608,-5.845,8.076,-4.532,2.298,0.306
6.457,0.725,11.398,-4.279,1.489,0.522
6.153,12.393,5.048,-4.049,2.294,0.574
9.733,22.782,-0.315,-2.818,1.171,0.621
6.856,26.795,-5.813,-0.573,-2.07,-0.671
1.024,10.732,-4.119,2.079,-4.512,-1.798
-4.974,6.287,-7.426,2.573,-3.847,-1.855
-6.619,-0.168,-2.054,3.468,-3.301,-1.386
-8.043,-6.656,1.446,3.609,-1.895,-1.13
-4.19,-11.193,4.353,3.167,0.52,-0.479
-0.836,-13.728,4.045,2.556,1.24,-0.033
-0.23,-13.707,3.097,2.011,1.546,0.231
0.409,-13.473,1.846,1.321,0.923,0.274
-0.679,-12.636,0.974,0.709,0.72,0.271
-0.182,-11.666,0.331,0.052,0.036,0.058
-0.221,-13.453,0.682,-0.486,-0.27,-0.408
1.633,-19.438,2.751,-1.153,-0.718,-1.048
-0.933,-25.844,4.403,-2.024,-0.756,-1.593
-2.173,-25.772,7.901,-3.29,0.987,-0.63
-1.983,-7.749,4.575,-4.612,1.752,0.338
2.016,-0.776,6.615,-4.442,2.094,0.347
0.337,12.886,1.689,-3.808,1.811,0.288
4.88,24.92,-1.989,-2.47,0.73,0.434
2.765,27.631,-6.482,-0.349,-2.763,-0.829
-0.123,9.258,-3.362,1.974,-4.271,-1.784
-5.858,3.875,-5.656,2.845,-4.442,-1.53
-5.378,-4.263,-3.267,3.424,-3.496,-1.078
-7.282,-11.111,-0.87,3.452,-2.043,-0.989
-3.072,-14.002,0.308,2.873,-0.256,-0.829
-0.159,-13.266,0.591,2.167,0.797,-0.653
0.709,-12.125,-0.103,1.416,0.935,-0.472
0.185,-11.432,0.47,0.754,0.717,-0.246
-0.297,-10.803,0.132,0.286,0.362,0.033
-0.497,-11.035,-0.049,0.024,0.36,0.153
-0.18,-11.786,0.044,-0.183,-0.018,-0.061
1.216,-14.915,1.412,-0.358,-0.344,-0.411
2.32,-19.329,1.817,-1.063,-1.002,-0.917
3.273,-26.063,4.57,-1.96,-0.302,-1.114
-0.528,-11.419,8.33,-3.629,1.405,0.663
5.457,1.384,12.108,-3.094,1.042,1.615
3.342,9.087,8.43,-3.116,1.004,1.309
6.11,19.269,6.621,-2.485,2.49,1.517
4.37,30.758,2.59,-1.135,0.091,1.564
4.763,18.645,-2.646,1.136,-2.352,-0.062
-3.955,6.055,-6.492,1.437,-2.819,-0.67
-4.759,0.776,-4.218,2.37,-2.73,-0.012
-9.029,-6.167,-3.12,3.021,-3.594,0.162
-8.287,-11.27,-1.87,3.1,-1.613,0.187
-4.994,-14.021,-0.45,2.858,-1.072,-0.018
-3.625,-13.426,-1.134,2.227,-0.127,-0.228
-2.015,-12.702,-0.775,1.445,0.218,-0.317
-1.696,-11.407,-0.094,0.834,0.122,-0.333
-0.938,-11.791,0.768,0.265,-0.04,-0.396
0.226,-14.369,2.007,-0.28,-0.278,-0.703
1.705,-18.266,4.038,-1.157,-0.919,-1.13
0.36,-22.609,6.528,-2.153,-0.991,-1.321
0.753,-21.985,10.374,-3.692,0.843,-0.2
3.649,-3.171,9.284,-4.973,1.239,1.012
4.02,5.188,5.471,-4.974,1.229,1.139
5.39,14.231,0.683,-4.217,1.621,1.502
4.84,22.92,-4.271,-2.756,0.303,1.54
1.995,25.78,-10.666,-0.787,-1.923,0.12
-2.435,9.83,-10.671,1.089,-2.841,-1.236
-4.792,5.6,-7.945,1.908,-3.068,-1.203
-7.896,0.887,-4.449,2.53,-3.114,-1.223
-6.075,-3.845,-1.694,2.63,-1.966,-1.014
-4.391,-7.952,0.331,2.766,-1.406,-0.639
-2.689,-10.898,1.08,2.582,-0.618,-0.245
-2.036,-13.2,0.79,2.215,-0.042,-0.083
-1.046,-14.433,0.607,1.618,0.31,-0.1
-1.544,-14.639,0.425,0.977,0.355,-0.368
0.015,-15.089,1.578,0.235,0.155,-0.667
-0.418,-17.282,2.169,-0.405,-0.77,-1.222
0.868,-21.316,3.389,-1.225,-0.948,-1.627
-0.159,-23.672,7.099,-2.3,0.077,-1.256
-0.624,-7.673,9.902,-3.972,1.921,0.599
3.343,2.503,10.474,-3.647,1.652,1.543
4.701,10.965,7.485,-3.487,2.406,1.398
5.705,21.606,3.979,-2.769,3.202,1.574
6.983,29.118,-1.983,-1.202,0.392,1.229
5.769,16.758,-5.768,1.19,-2.468,-0.513
-1.364,9.065,-6.783,1.83,-3.201,-1.473
-3.487,3.621,-4.385,2.57,-3.683,-1.021
-6.235,-2.871,-1.951,3.084,-4.053,-0.736
-6.382,-8.519,0.207,3.077,-2.12,-0.579
-3.658,-12.172,1.273,2.772,-0.781,-0.32
-0.997,-13.486,0.993,2.19,0.376,0.065
-0.22,-13.194,1.115,1.658,0.736,0.295
-0.118,-12.324,0.963,1.053,0.247,0.297
-0.361,-11.797,1.023,0.479,-0.059,0.113
-0.467,-13.212,1.606,-0.045,-0.756,-0.327
-0.879,-15.532,2.507,-0.588,-1.221,-0.817
-1.387,-21.05,3.169,-1.314,-1.467,-1.283
-1.331,-25.367,7.098,-2.468,-0.343,-1.117
-3.661,-9.986,10.022,-4.135,1.474,0.682
1.302,1.982,12.823,-3.595,1.48,1.472
0.931,10.516,8.846,-3.239,1.241,1.146
1.976,19.977,4.637,-2.704,1.5,1.251
1.196,29.047,-1.695,-1.058,-0.609,1.011
0.607,17.07,-5.202,1.43,-3.318,-0.768
-6.689,8.025,-7.685,1.918,-3.595,-1.389
-6.695,1.289,-4.592,2.711,-3.13,-0.825
-7.277,-4.311,-1.655,3.425,-2.67,-0.692
-5.335,-10.237,0.975,3.287,-0.683,-0.726
-1.7,-13.491,1.465,2.658,0.518,-0.725
0.063,-14.304,0.251,1.852,1.421,-0.684
1.273,-13.911,0.357,1.016,1.72,-0.596
1.958,-13.26,0.796,0.311,1.168,-0.611
2.48,-15.527,1.384,-0.246,0.052,-0.921
2.303,-19.284,2.742,-0.997,-0.527,-1.359
0.968,-22.326,5.007,-1.917,-0.947,-1.613
-1.437,-22.089,7.362,-3.509,0.466,-1.119
0.79,-8.338,9.368,-5.136,2.245,-0.038
4.309,5.368,9.994,-5.02,2.694,0.974
4.768,15.893,7.91,-3.926,1.628,0.964
5.096,24.27,3.529,-2.481,0.372,0.613
5.344,27.536,0.892,0.185,-2.885,-0.472
0.362,14.157,-0.102,2.988,-5.852,-2.15
-4.408,2.882,-1.198,3.906,-5.753,-3.302
-4.289,-4.435,-1.006,3.944,-3.478,-2.942
-2.126,-10.179,0.46,3.613,-0.968,-2.352
0.18,-13.46,0.758,2.658,1.367,-1.522
1.951,-12.373,-0.002,1.644,2.668,-0.356
1.779,-12.1,0.777,0.792,2.635,0.539
2.756,-13.533,2.388,0.25,1.436,0.581
2.594,-17.391,3.73,-0.167,-0.486,0.231
2.181,-19.373,3.24,-0.883,-1.906,-0.332
1.41,-21.292,2.62,-1.669,-2.021,-0.781
1.239,-22.071,2.003,-2.33,-1.101,-0.699
-0.628,-17.691,4.069,-4.028,0.976,0.948
-3.806,2.181,1.976,-5.591,3.651,1.768
3.171,6.961,7.315,-4.566,2.735,1.985
2.691,14.242,4.778,-3.58,1.558,1.535
2.105,20.475,5.172,-2.067,-1.21,0.661
-2.522,18.835,3.998,0.535,-4.703,-1.62
-1.519,1.146,5.458,3.057,-6.806,-2.603
-7.67,-4.092,-1.736,3.02,-4.613,-2.908
-5.486,-12.008,0.285,3.042,-1.655,-2.73
-1.516,-15.813,-0.647,2.281,0.293,-2.253
1.858,-15.692,-3.033,1.272,2.049,-1.148
2.706,-13.17,-3.352,0.421,2.375,-0.302
1.827,-11.289,-1.121,0.175,1.835,0.188
2.265,-10.369,-0.57,0.085,0.034,0.241
0.491,-14.429,-0.221,0.022,-0.785,-0.177
2.691,-19.713,0.715,-0.073,-1.68,-1.106
1.727,-22.786,2.293,-0.747,-1.08,-1.378
2.184,-21.859,6.599,-2.587,0.759,-0.547
-0.874,-3.243,6.349,-4.508,2.561,0.126
5.119,8.678,9.508,-3.637,1.85,0.793
1.137,18.307,6.339,-2.606,0.989,0.811
1.559,24.471,4.37,-1.204,-0.706,0.354
-1.107,23.556,0.931,1.265,-3.648,-0.882
-0.344,5.023,0.292,3.873,-5.128,-1.523
-4.5,-6.05,-2.341,3.702,-3.068,-1.715
-1.888,-12.51,-0.792,3.296,-0.877,-1.162
0.832,-16.407,-0.572,2.634,0.66,-0.494
2.656,-16.31,-1.719,1.872,1.958,0.101
3.846,-14.377,-0.837,0.995,1.687,0.47
0.523,-11.848,-1.198,0.386,0.889,0.458
1.43,-9.456,-0.142,0.075,0.401,0.468
1.789,-11.435,0.506,0.118,-0.398,0.11
5.225,-18.15,1.936,0.115,-1.048,-0.457
4.714,-23.455,3.176,-0.497,-1.542,-1.087
4.019,-24.485,6.267,-1.841,-0.055,-0.554
2.606,-11.593,10.746,-3.653,1.735,0.298
4.513,2.4,11.616,-4.439,3.87,0.598
1.623,14.446,12.32,-3.678,2.67,0.888
1.531,24.603,9.092,-2.457,2.049,0.94
0.45,29.061,6.095,-0.382,-1.118,-0.418
-1.066,16.339,2.781,2.11,-3.976,-1.832
-5.094,3.073,1.804,3.683,-5.753,-2.192
-4.402,-5.497,0.346,3.729,-2.916,-2.141
-2.899,-12.928,1.729,3.508,-1.416,-1.724
0.782,-17.552,1.191,2.749,0.946,-0.915
3.202,-18.073,-0.138,1.98,2.062,-0.262
2.523,-16.14,-0.273,1.163,1.953,0.075
1.283,-12.45,-0.673,0.366,0.872,0.141
1.172,-11.731,0.421,-0.043,0.313,-0.053
2.113,-13.85,1.569,-0.121,-0.89,-0.751
3.884,-19.055,3.344,-0.382,-2.035,-1.34
6.374,-25.484,5.473,-1.315,-0.711,-1.0
2.273,-20.901,9.696,-3.029,1.024,0.004
-0.262,-2.098,6.693,-4.74,2.949,0.753
1.159,4.449,10.133,-4.254,1.791,1.179
-1.944,15.008,6.945,-3.993,2.866,1.249
-1.08,26.678,3.903,-2.638,0.421,0.778
-2.308,25.237,0.177,0.16,-3.071,-0.668
-2.89,6.627,5.551,3.058,-5.959,-1.459
-7.778,0.171,0.054,3.493,-3.847,-1.427
-4.488,-8.717,2.395,4.22,-2.601,-0.979
-6.893,-15.767,2.18,4.049,-1.483,-1.205
-0.927,-19.202,1.304,3.015,0.901,-0.811
1.446,-17.858,-1.643,1.873,2.052,-0.578
2.581,-14.286,-0.376,0.965,1.631,-0.419
0.782,-10.632,-0.718,0.257,0.123,-0.534
1.528,-10.765,0.893,0.025,-0.006,-0.535
3.579,-14.935,1.87,-0.133,-1.153,-0.902
4.136,-20.66,2.987,-0.686,-2.412,-1.493
4.068,-25.645,4.516,-1.523,-1.21,-1.485
1.59,-22.968,8.884,-3.267,0.865,-0.208
-1.568,-3.794,6.474,-4.825,2.883,0.306
-1.752,3.889,8.211,-4.224,1.646,0.231
-2.863,16.212,5.092,-3.539,2.219,0.21
-3.706,25.159,4.286,-2.137,-0.674,-0.144
-6.905,20.804,-1.362,0.755,-3.711,-1.457
-4.986,-0.628,1.394,3.372,-4.501,-1.411
-7.148,-6.48,-1.334,3.628,-2.659,-0.831
-6.552,-15.507,0.779,3.826,-1.805,-0.241
-5.823,-20.019,-0.246,3.35,-0.182,-0.021
-0.393,-18.111,0.48,2.194,1.012,0.037
-0.441,-13.704,-0.272,1.077,-0.108,-0.259
-0.866,-10.555,0.304,0.374,-0.425,-0.432
0.066,-10.284,1.078,0.079,-0.788,-0.632
1.926,-15.827,2.992,-0.201,-1.216,-1.033
2.144,-21.948,4.31,-0.889,-1.332,-1.364
1.271,-24.488,6.324,-2.15,-0.131,-0.905
-1.287,-13.383,11.849,-3.908,1.836,0.561
-1.085,-0.521,12.594,-3.769,2.156,1.241
-0.48,9.521,10.295,-3.663,2.142,1.269
-2.793,21.136,6.22,-2.581,1.07,0.962
-1.969,28.241,3.331,-0.489,-1.714,0.009
-3.465,17.293,-2.473,2.343,-5.206,-2.148
-4.965,4.296,-3.514,3.215,-4.929,-2.832
-6.117,-2.815,-3.464,3.875,-3.507,-2.292
-3.393,-10.445,-0.34,3.759,-1.47,-1.616
-2.352,-15.862,0.497,3.064,0.284,-1.256
1.76,-16.237,0.308,2.069,1.98,-0.578
2.06,-13.387,-0.052,1.068,1.487,-0.306
0.52,-9.839,0.376,0.555,0.487,-0.254
0.26,-8.783,0.03,0.343,-0.227,-0.181
1.46,-11.848,-0.343,0.191,0.001,-0.259
4.772,-20.164,1.516,-0.413,-0.299,-0.596
2.858,-25.695,4.986,-1.611,0.52,-0.68
0.399,-18.105,10.797,-3.422,2.408,0.3
1.2,-3.666,10.22,-4.003,3.924,0.684
1.725,4.075,12.597,-3.516,1.942,0.342
-1.865,17.705,8.03,-2.863,1.919,0.195
0.52,26.642,3.435,-1.144,-0.491,0.138
-1.033,20.386,-1.911,1.602,-3.983,-1.08
-4.04,5.081,0.209,3.133,-5.892,-1.385
-7.127,-2.098,-2.404,3.575,-3.987,-0.808
-6.073,-10.056,0.175,4.015,-2.919,-0.389
-6.167,-15.519,1.246,3.678,-1.108,-0.337
-2.029,-17.593,0.541,2.728,0.697,-0.114
-0.927,-15.789,-0.87,1.682,1.118,-0.167
-0.635,-12.53,-0.125,0.779,0.954,-0.21
-0.657,-11.259,0.334,0.111,0.124,-0.247
0.041,-14.75,1.257,-0.163,-0.291,-0.711
0.856,-20.86,2.115,-0.894,-0.75,-1.422
-0.666,-26.565,7.087,-1.841,0.04,-1.53
-1.224,-9.444,10.736,-3.564,1.79,-0.141
3.29,4.203,14.246,-2.839,1.527,0.245
2.569,15.121,10.733,-2.763,0.835,0.169
-0.491,25.809,6.368,-1.65,-0.167,0.501
-2.422,31.015,2.348,0.163,-2.72,0.568
-3.51,11.796,-2.742,2.744,-4.048,-0.634
-8.337,-2.93,-6.151,2.746,-2.549,-0.493
-8.179,-10.991,-3.065,3.073,-1.223,0.298
-5.35,-16.439,1.124,2.796,0.459,0.643
-0.609,-16.235,-0.171,1.979,2.108,0.51
1.71,-14.023,1.046,1.121,1.563,0.222
1.052,-11.147,0.595,0.536,-0.081,-0.174
-0.449,-8.567,0.17,0.261,-0.797,-0.392
-0.427,-8.364,0.048,0.187,-1.486,-0.608
-0.258,-14.391,0.107,0.05,-1.732,-0.857
-0.255,-21.661,-0.089,-0.415,-1.805,-1.315
-1.359,-28.259,3.355,-1.396,0.052,-1.118
1.743,-11.44,6.56,-3.235,2.156,-0.176
7.602,0.461,10.067,-2.99,2.517,0.373
5.934,12.245,6.728,-2.998,2.153,0.291
4.72,25.078,4.263,-2.224,0.902,0.536
2.242,32.566,0.23,-0.479,-2.159,0.192
-2.182,13.245,-3.002,2.423,-3.995,-0.887
-7.393,0.44,-6.793,2.896,-3.34,-1.219
-6.582,-7.057,-3.445,3.568,-2.262,-0.797
-4.832,-13.861,-0.428,3.406,-0.595,-0.599
-0.739,-15.678,0.311,2.548,1.182,-0.499
1.602,-13.365,0.046,1.341,1.149,-0.405
0.175,-11.018,0.119,0.546,0.363,-0.515
0.786,-9.86,0.711,0.073,-0.335,-0.731
0.901,-12.929,2.24,0.039,-0.902,-1.105
3.752,-20.857,5.06,-0.307,-1.577,-1.859
1.147,-26.054,8.324,-1.441,-1.415,-1.952
-1.197,-15.584,12.418,-3.19,0.511,-0.359
-0.798,-0.558,10.113,-4.044,1.16,0.464
-0.417,10.145,8.531,-3.744,0.097,0.465
-6.537,24.197,1.941,-2.904,-0.981,0.675
-7.497,30.933,-1.164,-0.883,-2.498,0.621
-7.59,15.611,-4.957,1.721,-4.634,-0.889
-8.512,-1.011,-2.417,3.477,-3.749,-1.443
-7.308,-9.459,-1.969,3.539,-1.738,-0.931
-3.871,-16.096,1.88,3.099,0.07,-0.344
0.009,-17.834,1.756,2.253,1.688,-0.044
2.285,-13.08,1.291,1.461,1.942,0.12
1.324,-10.303,0.482,0.616,0.555,0.289
-1.646,-8.565,-0.63,0.319,0.051,0.476
-0.411,-10.529,-0.227,0.432,-0.166,0.457
0.856,-17.478,2.318,0.345,-1.001,-0.311
1.581,-23.753,5.268,-0.661,-1.761,-1.331
-0.958,-27.624,10.247,-2.524,-0.649,-1.527
-0.415,-10.3,11.397,-4.425,1.006,-0.623
-0.781,4.144,10.981,-4.187,-0.117,-0.473
-2.814,17.808,4.614,-3.608,-0.441,-0.362
-6.691,26.262,1.272,-2.0,-0.978,0.093
-5.642,27.41,-3.743,0.416,-2.568,0.231
-6.765,7.288,-3.483,3.034,-3.423,-0.47
-6.508,-5.951,-3.47,3.113,-1.277,-0.1
-5.892,-14.544,0.814,2.879,0.025,0.635
-1.371,-17.455,1.285,2.329,1.599,1.03
1.063,-15.158,1.384,1.779,2.04,0.869
1.793,-12.084,0.278,1.071,1.024,0.553
-0.321,-10.372,0.019,0.767,-0.063,0.182
-0.272,-9.602,-0.113,0.594,-0.34,-0.011
0.387,-11.449,0.316,0.344,-1.093,-0.357
2.205,-18.665,3.881,0.098,-1.594,-0.961
-0.107,-23.245,5.647,-0.782,-1.747,-1.393
-0.987,-21.589,11.0,-2.666,0.196,-0.817
-1.181,-3.273,6.624,-3.982,0.565,-0.475
-1.802,5.526,4.631,-3.35,0.073,-0.435
-5.779,18.132,-2.426,-2.747,-0.554,-0.517
-6.083,24.259,-4.815,-1.395,-1.766,-0.553
-6.378,19.995,-9.98,1.296,-3.78,-1.162
-6.065,-0.338,-3.952,3.302,-2.723,-1.166
-4.948,-9.341,-1.115,3.104,-0.789,-0.579
-0.594,-16.45,3.143,2.631,0.608,0.193
2.832,-18.148,2.942,1.895,1.72,0.644
4.179,-15.098,2.399,0.921,1.695,0.661
2.623,-12.2,0.679,0.108,-0.007,0.344
0.37,-10.589,0.444,-0.221,-0.899,-0.033
-0.891,-11.51,0.16,-0.286,-1.591,-0.49
1.15,-18.138,2.204,-0.638,-1.89,-1.171
-0.336,-25.974,6.443,-1.293,-1.626,-1.768
0.21,-25.642,11.864,-2.991,0.389,-0.795
1.286,-7.441,4.645,-4.711,1.658,0.165
4.175,-3.353,7.62,-4.458,1.264,-0.057
0.569,10.752,2.326,-4.049,1.606,-0.029
2.173,25.331,-1.741,-2.563,-0.111,0.376
-3.583,25.707,-4.222,0.329,-3.604,-0.877
-5.582,3.686,5.529,3.378,-4.755,-1.707
-9.047,-2.122,3.564,4.164,-2.73,-1.058
-4.645,-12.964,8.865,4.601,-1.967,-0.554
-4.486,-21.381,8.771,3.84,-0.4,-0.728
1.7,-21.864,5.43,2.648,1.312,-0.365
1.497,-17.054,1.742,1.236,1.001,-0.339
1.277,-13.502,0.795,0.083,-0.194,-0.454
-0.569,-14.142,1.119,-0.404,-0.937,-0.822
1.379,-20.138,3.656,-0.853,-1.348,-1.227
0.345,-26.81,8.17,-1.595,-1.234,-1.704
-1.391,-21.583,16.156,-3.231,0.769,-0.386
1.74,-3.467,13.877,-3.681,1.295,0.445
1.89,4.95,10.667,-3.604,1.332,0.217
1.345,20.313,6.087,-2.689,1.089,0.332
-0.859,30.52,2.85,-0.98,-0.737,0.397
-1.541,20.988,-3.285,1.945,-3.311,-0.979
-4.727,0.187,-0.802,3.618,-2.708,-1.568
-5.366,-6.468,3.145,4.352,-1.007,-0.652
-4.773,-15.966,6.669,4.167,-0.143,0.011
-1.51,-20.48,5.575,3.331,1.828,0.498
2.595,-16.421,3.4,2.207,2.558,0.704
1.385,-13.42,2.557,1.282,1.024,0.601
1.164,-13.822,0.598,0.471,-0.462,0.221
0.876,-17.793,1.369,-0.05,-0.975,-0.554
1.37,-22.418,3.998,-0.864,-2.034,-1.494
-0.924,-26.314,7.424,-2.22,-1.087,-1.811
-2.287,-18.335,13.86,-4.092,1.219,-0.735
-1.921,0.677,12.062,-4.51,2.101,-0.045
-2.61,9.991,10.201,-4.017,1.264,0.168
-3.691,23.052,5.747,-2.782,0.783,0.303
-4.454,31.413,2.852,-0.592,-1.813,0.059
-5.59,21.718,-1.954,2.281,-4.808,-1.029
-6.21,0.299,0.597,3.909,-5.041,-1.185
-5.478,-7.01,0.085,4.144,-2.944,-0.462
-3.998,-15.988,1.678,3.832,-1.437,0.173
-1.425,-20.638,1.505,2.97,0.245,0.467
1.324,-18.593,-0.132,1.875,1.213,0.346
-0.369,-13.928,-1.292,0.813,0.52,-0.134
-0.882,-13.179,-0.502,0.327,-0.728,-0.746
-0.437,-16.519,1.024,0.074,-1.296,-1.32
0.634,-22.804,3.402,-0.644,-1.307,-1.878
-1.285,-24.416,9.002,-2.422,0.667,-1.42
-1.035,-6.824,7.645,-4.223,2.519,-1.022
3.358,3.065,12.594,-3.45,1.243,-0.425
0.783,14.918,9.37,-2.964,0.266,-0.313
-2.667,25.956,5.744,-1.624,-1.405,-0.173
-2.976,26.527,1.561,0.945,-4.548,-0.631
-3.451,6.222,2.438,3.62,-6.182,-0.661
-8.2,-4.535,-2.293,3.423,-3.344,-0.502
-6.463,-12.865,-0.64,3.363,-1.504,0.359
-3.628,-18.672,0.695,2.932,0.517,1.079
-0.963,-17.928,-0.783,2.207,1.782,1.141
0.334,-15.256,-0.166,1.261,1.522,0.678
-0.287,-13.805,-0.181,0.732,-0.244,-0.248
0.715,-18.075,2.65,0.534,-1.557,-1.467
0.211,-21.771,4.921,-0.037,-2.716,-2.575
0.76,-25.394,7.83,-1.48,-1.058,-2.039
-3.073,-7.761,11.548,-3.209,0.836,-0.432
3.396,4.716,14.493,-2.979,2.161,0.515
0.23,15.162,8.829,-3.388,2.46,0.929
2.454,26.153,4.519,-2.832,2.688,1.51
-1.861,34.274,0.907,-0.701,-0.532,0.406
-1.217,16.97,-1.579,1.956,-3.723,-1.453
-7.893,3.919,-4.878,2.664,-4.026,-1.898
-4.504,-3.828,-1.795,3.705,-2.63,-1.263
-5.719,-11.683,0.892,4.015,-1.491,-0.78
-0.746,-16.896,2.149,3.431,0.178,-0.046
2.169,-17.212,0.822,2.511,1.411,0.446
2.322,-14.855,0.637,1.42,0.856,0.388
1.467,-14.798,1.147,0.622,-0.305,-0.068
1.923,-17.172,1.05,-0.081,-1.358,-0.915
1.39,-22.2,3.949,-0.749,-1.748,-1.743
1.113,-26.099,11.022,-2.485,0.165,-1.304
0.378,-8.605,12.404,-4.168,2.118,-1.019
5.214,-0.16,16.679,-3.54,0.665,-0.382
4.19,9.749,13.586,-3.326,1.432,-0.115
4.163,21.725,8.214,-2.269,0.383,0.106
0.965,29.101,0.75,0.419,-2.881,-0.822
-0.271,10.992,1.265,3.244,-5.549,-1.102
-6.19,2.196,-4.016,3.58,-3.364,-1.198
-5.275,-6.465,0.028,4.24,-2.099,-0.269
-4.163,-13.43,2.917,3.963,-0.586,0.468
-0.426,-17.302,3.365,3.151,0.994,1.014
1.893,-16.956,1.323,2.173,1.765,1.152
1.524,-14.722,1.859,1.253,0.997,0.866
0.892,-14.564,0.74,0.575,-1.011,0.05
0.274,-18.399,1.496,0.028,-1.663,-0.934
1.503,-24.667,5.233,-0.772,-2.056,-1.786
-0.82,-26.424,9.963,-2.324,-0.577,-1.008
2.266,-8.242,10.431,-4.119,1.498,-0.39
6.298,-1.29,12.199,-3.762,1.234,-0.125
6.736,8.985,7.894,-3.746,2.295,0.234
6.727,21.596,2.035,-2.69,1.732,0.732
6.116,27.534,-3.818,-0.565,-1.051,-0.467
1.602,10.821,-3.803,1.899,-3.996,-1.211
-3.551,4.152,-5.271,2.345,-3.653,-1.031
-4.896,-3.3,-3.049,3.34,-3.804,-0.558
-5.189,-10.692,-0.493,3.496,-2.496,-0.226
-2.146,-15.547,1.023,3.08,-1.242,0.079
-0.061,-17.674,0.842,2.398,-0.128,0.084
0.884,-17.532,0.795,1.475,0.12,-0.338
2.186,-19.538,2.486,0.261,-0.79,-1.031
1.992,-23.85,3.258,-1.004,-1.438,-1.904
0.734,-27.601,8.333,-2.175,-0.557,-2.076
0.197,-21.196,13.049,-3.956,1.274,-0.297
3.192,-1.808,11.951,-4.081,2.394,0.599
1.935,5.449,7.478,-3.955,2.602,0.881
4.189,17.788,3.944,-3.253,2.849,1.497
2.286,28.053,-3.007,-1.687,0.424,1.398
-0.019,25.196,-7.283,0.764,-2.553,-0.555
-5.556,8.113,-4.919,1.976,-4.307,-1.139
-5.653,2.031,-0.706,3.343,-3.952,-0.505
-8.832,-6.694,2.47,4.38,-3.539,-0.109
-5.085,-14.601,4.347,4.234,-1.57,0.243
-1.699,-19.108,4.154,3.739,-0.42,0.215
1.201,-22.096,3.243,2.607,-0.183,-0.264
2.258,-21.664,3.709,0.94,-0.772,-1.069
3.557,-22.915,4.819,-0.838,-2.202,-1.687
2.011,-24.357,5.447,-2.247,-2.379,-1.84
1.014,-26.044,9.089,-3.653,-0.552,-0.607
6.549,-5.564,14.829,-5.237,1.811,0.853
9.395,1.675,19.268,-3.889,1.046,1.554
8.04,10.676,14.644,-3.337,1.989,1.539
11.425,20.133,12.261,-2.258,1.651,1.52
9.081,28.203,7.129,-0.372,-1.841,0.393
-0.341,11.946,0.821,2.193,-4.706,-0.438
-6.038,5.943,-4.892,2.286,-3.976,-0.418
-6.917,-1.152,-1.34,3.465,-3.785,0.386
-9.802,-8.683,-0.16,3.973,-3.333,0.842
-7.579,-14.736,1.083,3.871,-1.298,1.018
-3.997,-17.234,1.051,3.363,-0.211,0.54
-2.329,-17.965,1.682,2.562,0.126,-0.149
-0.067,-19.554,1.722,1.266,-0.516,-1.076
1.035,-21.426,3.732,-0.178,-1.375,-2.245
1.875,-24.244,6.851,-1.72,-1.831,-2.697
-0.619,-24.526,11.191,-3.778,-0.053,-1.696
1.632,-6.742,11.935,-5.556,2.073,-1.114
4.647,4.163,13.563,-4.771,1.639,0.058
2.828,12.889,9.292,-3.865,1.702,0.676
2.608,24.856,4.194,-2.302,0.442,0.628
1.35,30.229,-2.09,0.232,-2.932,-0.748
-2.739,14.748,-3.208,2.831,-5.612,-1.127
-6.7,3.03,-5.827,3.172,-4.589,-1.517
-5.942,-4.851,-3.249,3.84,-2.992,-1.011
-4.843,-12.851,-0.952,3.618,-0.566,-0.143
-1.248,-17.23,1.199,3.029,1.079,0.648
1.292,-17.689,1.558,2.268,2.037,0.924
1.148,-14.117,2.377,1.549,1.829,0.687
1.995,-12.981,3.385,0.71,0.628,0.316
1.822,-17.139,3.789,0.098,-0.864,-0.415
1.979,-20.691,4.549,-0.879,-1.46,-1.132
-0.117,-24.458,5.402,-2.165,-1.032,-1.339
-3.989,-21.591,8.857,-3.992,0.889,-0.743
-5.72,-6.134,5.794,-4.948,1.469,-0.297
-4.378,3.818,6.782,-4.419,1.498,0.206
-3.085,14.633,4.35,-3.457,0.868,0.424
-3.812,24.218,2.083,-1.699,-1.201,-0.152
-1.679,23.745,-2.027,0.992,-4.693,-1.182
-2.248,7.056,-1.008,2.958,-5.705,-1.643
-3.946,-0.912,-2.708,3.709,-4.752,-1.774
-4.942,-9.423,-1.879,4.063,-2.755,-1.167
-2.301,-16.034,-0.852,3.807,-1.116,-0.409
-0.416,-18.675,-0.013,3.015,0.632,-0.023
1.345,-16.564,2.085,2.108,1.038,-0.037
1.237,-16.016,3.174,1.009,0.247,-0.323
2.482,-19.683,4.92,0.228,-1.004,-1.039
2.012,-22.183,6.442,-0.74,-1.232,-1.511
0.476,-21.603,7.423,-2.448,0.142,-0.626
0.33,-6.102,10.035,-4.272,2.153,0.264
6.025,4.84,10.535,-3.86,2.326,0.939
2.481,14.572,8.358,-2.792,1.041,0.82
1.252,21.278,4.456,-1.61,0.121,0.857
-0.293,23.21,2.401,0.676,-2.412,-0.406
-1.36,8.108,-1.488,3.075,-4.564,-1.196
-8.462,-2.379,-2.139,3.478,-4.197,-1.282
-6.937,-8.744,-0.782,3.198,-1.878,-0.296
-5.354,-13.924,2.518,3.087,-0.15,0.294
-1.273,-18.142,4.042,2.662,1.036,0.568
0.52,-20.986,5.342,2.045,0.732,0.134
2.559,-23.14,5.985,0.958,-0.24,-0.803
2.134,-24.443,7.72,-0.155,-1.167,-1.552
-0.574,-23.02,9.065,-1.835,-0.424,-1.069
-2.294,-12.181,12.3,-3.886,1.292,-0.069
1.218,-1.429,11.877,-3.821,1.553,0.785
-0.388,6.602,8.168,-3.079,0.883,0.846
0.018,14.035,2.594,-2.323,0.868,0.845
2.149,17.678,-1.731,-0.693,-1.526,-0.034
-0.065,11.022,-7.125,1.541,-4.05,-0.918
-6.122,3.832,-7.764,2.049,-3.856,-1.014
-6.731,-1.048,-5.711,2.161,-2.464,-0.044
-7.443,-6.842,-1.778,2.618,-2.068,0.613
-7.115,-12.03,0.565,2.724,-0.865,0.928
-4.377,-15.715,1.94,2.582,0.114,0.766
-1.805,-17.943,2.351,2.016,0.41,0.046
1.317,-20.644,4.167,1.238,0.195,-0.832
3.348,-22.359,5.17,-0.023,-0.504,-1.71
2.828,-22.874,6.362,-1.261,-1.144,-2.12
0.154,-21.352,7.48,-2.646,-0.15,-1.402
0.603,-10.328,9.309,-4.436,1.556,0.165
0.289,5.136,4.821,-4.517,1.846,1.223
0.411,14.023,2.461,-3.577,1.681,1.3
0.192,21.51,-2.34,-2.655,1.47,1.026
1.55,24.576,-4.622,-1.294,-1.072,0.292
-2.75,14.228,-7.756,1.136,-3.892,-0.764
-5.316,0.808,-5.066,2.282,-3.739,-1.09
-6.445,-5.719,-4.822,2.636,-2.754,-0.478
-5.312,-11.517,-1.53,3.038,-2.041,0.051
-3.797,-14.73,-0.371,3.171,-0.856,0.144
-0.868,-14.03,1.068,2.786,0.022,-0.032
0.119,-13.197,1.167,2.037,-0.294,-0.316
0.588,-14.184,1.997,1.208,-0.752,-0.632
1.842,-16.981,2.899,0.304,-1.249,-0.938
2.273,-20.649,5.177,-0.823,-1.864,-1.239
0.592,-23.245,6.792,-2.085,-1.531,-1.173
-1.911,-20.448,8.566,-3.694,0.319,-0.194
3.168,-3.059,7.652,-5.165,2.369,0.587
5.065,8.857,7.739,-4.365,1.873,0.996
2.462,18.108,0.845,-3.339,1.696,1.069
2.061,24.186,-2.197,-1.786,0.519,0.986
2.061,21.449,-3.131,0.525,-2.138,0.261
-5.165,4.537,-1.808,2.958,-3.648,0.007
-8.548,-5.49,-2.524,3.096,-2.261,0.215
-6.145,-11.783,1.97,3.163,-1.196,0.574
-3.513,-15.894,3.604,2.881,-0.443,0.624
-1.145,-16.042,2.81,2.245,0.001,0.359
-0.124,-15.405,1.866,1.407,-0.429,-0.088
0.431,-15.957,2.557,0.638,-1.155,-0.59
0.248,-18.466,3.985,-0.188,-1.84,-1.093
-0.45,-20.726,5.379,-1.314,-2.125,-1.517
-1.859,-22.235,7.539,-2.553,-1.295,-1.41
-3.422,-19.39,9.394,-4.088,0.651,-0.405
-0.592,-2.005,8.507,-5.653,2.713,0.553
3.878,10.414,10.016,-4.601,2.157,1.271
1.187,19.131,5.598,-3.245,0.981,1.181
2.044,24.617,0.378,-1.724,0.138,1.181
1.388,22.532,-2.179,0.36,-2.499,0.605
-4.793,7.074,-2.075,2.719,-4.258,0.551
-11.474,-2.454,-4.824,2.77,-2.952,0.811
-9.221,-8.473,-1.629,2.933,-1.124,1.629
-8.786,-13.048,1.986,3.119,-0.779,1.627
-6.343,-14.315,3.453,3.027,-0.073,1.251
-4.036,-15.174,3.212,2.553,-0.233,0.404
-1.894,-16.144,3.137,1.691,-0.516,-0.374
-1.164,-18.19,3.383,0.556,-0.989,-1.062
-0.88,-20.131,4.349,-0.838,-1.244,-1.716
-2.647,-20.783,5.099,-2.175,-1.466,-2.317
-3.806,-20.095,6.324,-3.312,-0.196,-2.0
-4.026,-14.279,7.723,-4.895,1.658,-0.604
-2.46,4.035,3.359,-5.485,3.062,0.22
-0.258,12.912,4.728,-3.965,1.705,0.514
-1.207,19.469,-0.133,-2.704,1.091,0.671
-0.745,23.005,-2.219,-1.185,-1.048,0.233
-2.577,18.663,-4.145,1.138,-3.676,-0.741
-5.983,1.786,-1.033,2.981,-4.833,-0.79
-9.127,-5.709,-3.809,2.959,-2.766,0.039
-7.189,-11.794,-0.404,3.172,-1.682,0.925
-6.551,-16.087,0.728,2.973,-0.408,1.455
-5.27,-16.097,0.851,2.582,0.578,1.382
-3.605,-15.136,1.284,1.802,0.811,0.962
-2.639,-13.983,1.325,1.014,0.273,0.142
-0.863,-14.748,1.924,0.195,-0.49,-0.864
-0.461,-19.342,3.978,-0.507,-1.729,-1.994
-2.382,-23.172,6.559,-1.435,-1.609,-2.411
-5.023,-20.665,9.003,-3.221,0.05,-1.431
-2.153,-2.876,8.208,-4.893,2.014,-0.723
1.232,7.281,10.579,-3.96,1.575,0.091
-0.825,17.848,6.237,-3.042,0.942,0.601
0.292,25.534,1.095,-1.968,-0.097,0.819
0.806,24.528,-2.188,0.183,-2.79,0.212
-4.541,6.616,-2.173,2.607,-4.736,0.319
-9.688,-2.123,-4.773,2.616,-3.494,0.64
-8.502,-8.044,-2.543,2.763,-1.945,1.335
-7.176,-12.974,0.69,2.917,-1.131,1.654
-5.983,-14.939,1.181,2.805,-0.565,1.322
-4.061,-14.559,1.786,2.218,-0.388,0.728
-3.644,-13.897,1.439,1.47,-0.789,0.037
-2.608,-13.552,1.564,0.596,-0.943,-0.553
-2.294,-13.551,1.306,-0.166,-1.395,-1.211
-1.044,-15.757,2.313,-0.809,-1.553,-1.664
-0.887,-18.311,3.876,-1.42,-1.903,-2.022
-1.719,-20.651,5.653,-2.204,-0.931,-1.613
-3.672,-16.686,7.115,-3.761,1.06,-0.002
-2.678,0.859,3.46,-4.67,3.253,0.761
1.449,10.186,5.515,-3.527,2.057,0.914
-2.269,17.282,0.521,-2.605,1.258,0.619
-0.951,21.226,-2.542,-1.468,0.023,0.285
-0.695,17.53,-5.313,0.549,-2.085,-0.74
-3.429,0.889,-3.001,2.084,-3.688,-0.498
-8.637,-6.058,-6.085,1.732,-1.846,0.317
-5.543,-10.612,-3.131,1.831,-0.632,1.353
-5.954,-12.825,-1.582,2.106,-0.083,1.547
-4.154,-13.085,-0.665,2.213,0.123,1.163
-2.547,-13.391,0.112,2.106,-0.207,0.315
-0.887,-14.399,0.821,1.672,-0.703,-0.565
0.365,-16.391,1.994,1.047,-1.612,-1.42
0.503,-17.564,2.267,0.115,-2.475,-1.953
-0.588,-18.246,2.754,-0.809,-2.405,-2.034
-2.023,-18.301,3.116,-1.846,-1.096,-1.396
-3.189,-13.959,3.432,-3.403,1.037,0.187
-5.415,2.43,-2.009,-4.948,3.456,1.44
0.06,10.513,0.006,-3.881,3.746,1.789
-1.226,17.182,-3.659,-2.93,2.718,0.964
-0.347,20.606,-6.469,-1.737,0.77,-0.016
-1.088,18.675,-8.242,0.233,-1.923,-1.485
0.418,4.455,-4.58,2.245,-3.576,-2.109
-4.584,-2.157,-7.889,2.001,-2.991,-1.735
-1.686,-8.439,-5.052,2.101,-1.644,-0.339
-1.291,-11.41,-2.515,2.216,-0.781,0.661
-0.491,-12.548,-1.491,2.267,0.177,1.198
-0.092,-12.48,-0.553,2.281,0.251,1.218
-0.139,-12.515,0.044,2.088,0.087,0.853
-0.034,-12.973,0.913,1.709,-0.438,0.113
0.833,-15.091,1.851,1.256,-1.198,-0.744
0.776,-18.226,2.333,0.622,-1.846,-1.44
0.233,-22.884,4.083,-0.184,-1.443,-1.537
-1.47,-22.589,6.266,-2.197,0.264,-0.402
-2.656,-3.504,5.789,-4.067,2.301,0.332
5.089,6.602,8.896,-3.65,2.195,1.109
0.721,13.98,5.546,-2.928,1.085,0.948
0.396,21.791,1.954,-2.232,0.175,0.713
0.441,22.028,-0.919,-0.165,-2.205,-0.123
-0.583,4.038,-1.467,2.214,-4.039,-0.063
-9.221,-5.097,-5.375,2.441,-3.167,0.125
-5.396,-10.218,-2.892,2.701,-1.656,0.828
-4.227,-14.514,-0.753,2.902,-0.839,1.128
-3.279,-15.203,-0.171,2.838,-0.157,0.802
-1.515,-15.428,0.379,2.272,-0.172,0.143
-0.83,-15.215,0.549,1.537,-0.454,-0.649
1.205,-15.599,1.595,0.506,-0.859,-1.185
1.057,-16.715,2.216,-0.298,-1.931,-1.747
1.869,-19.252,3.071,-1.262,-1.917,-2.027
-0.526,-21.007,4.118,-2.237,-0.931,-1.772
-3.416,-14.01,6.004,-3.953,1.062,-0.347
-2.591,0.916,3.07,-4.733,1.268,0.761
-2.807,9.92,0.968,-4.093,1.26,1.05
-4.24,18.322,-2.651,-3.029,0.438,0.952
-3.844,23.022,-5.734,-1.735,-1.364,0.707
-3.038,16.377,-8.183,0.696,-4.131,-0.111
-6.522,1.542,-6.288,2.42,-3.827,-0.477
-6.896,-6.296,-5.429,2.763,-2.557,-0.076
-5.483,-12.349,-2.247,2.807,-1.266,0.503
-3.936,-15.214,0.218,2.737,-0.274,0.692
-2.446,-14.54,1.115,2.242,0.609,0.406
-1.321,-12.775,1.412,1.551,0.54,0.114
-1.207,-11.094,1.64,0.899,-0.084,-0.167
-1.236,-10.338,1.836,0.429,-0.709,-0.498
-0.688,-11.406,1.587,0.024,-1.321,-0.896
0.613,-15.155,1.886,-0.384,-1.977,-1.355
0.734,-19.446,2.562,-1.102,-2.229,-1.751
-0.775,-22.38,4.892,-2.218,-1.036,-1.321
-4.105,-10.667,8.779,-3.894,1.005,0.081
-5.852,6.367,5.01,-4.492,2.268,0.471
-7.31,17.238,3.266,-3.291,1.316,0.624
-8.952,23.876,0.222,-1.682,0.585,0.878
-9.032,24.773,-2.265,0.288,-1.464,0.71
-6.771,11.195,-6.681,2.573,-2.819,-0.172
-4.971,-5.175,-3.062,3.644,-3.161,-0.022
-4.107,-12.279,-2.353,2.934,-1.2,0.304
-2.132,-15.452,0.429,2.25,-0.063,0.502
-0.238,-13.975,0.757,1.611,0.678,0.339
0.337,-11.716,1.164,1.202,0.081,0.103
-0.612,-10.266,1.233,0.88,-0.752,0.006
-1.541,-10.035,1.573,0.631,-1.243,-0.05
-0.986,-10.699,1.542,0.228,-1.713,-0.387
-0.101,-14.576,3.18,-0.238,-2.28,-0.858
0.996,-20.116,5.103,-1.247,-3.101,-1.473
-0.985,-25.91,10.333,-2.589,-2.528,-1.708
-4.109,-20.298,15.7,-4.359,-0.506,-0.619
-2.054,-1.448,11.919,-5.11,1.085,-0.03
-1.861,10.365,11.329,-3.927,0.172,0.205
-6.213,19.457,6.191,-2.478,0.002,0.574
-5.919,25.735,0.518,-0.646,-1.103,1.032
-5.466,18.495,-4.946,1.678,-2.825,0.672
-9.487,-0.814,-0.706,3.272,-3.616,1.029
-11.379,-9.971,-2.164,2.92,-1.537,1.567
-8.07,-14.662,0.808,2.746,-0.035,1.897
-5.914,-15.948,1.076,2.474,0.908,1.735
-3.141,-14.324,1.119,2.07,0.663,1.101
-2.118,-12.194,0.323,1.459,0.077,0.413
-1.924,-10.394,0.506,0.945,-0.513,0.004
-1.928,-9.527,0.565,0.542,-1.121,-0.348
-1.898,-10.722,0.754,0.24,-1.521,-0.881
-0.987,-14.677,1.033,-0.115,-1.755,-1.348
-0.536,-19.849,1.373,-0.821,-1.554,-1.731
-1.724,-22.833,4.266,-2.184,-0.182,-1.425
-4.803,-7.983,9.031,-3.924,1.867,0.048
-5.988,6.379,7.695,-3.963,1.916,0.543
-9.06,17.081,4.969,-3.078,0.623,0.412
-11.748,24.07,2.775,-1.757,-0.77,0.529
-12.577,24.741,-1.735,0.293,-2.601,0.39
-9.535,7.666,-6.711,2.669,-3.897,-0.571
-8.77,-6.229,-6.172,3.242,-3.07,-0.399
-6.357,-13.641,-3.866,2.932,-0.804,0.309
-3.709,-16.105,-1.997,2.476,0.82,0.665
-1.041,-13.758,-0.153,1.872,1.547,0.586
-0.929,-10.594,0.195,1.328,1.08,0.323
-0.65,-8.844,1.141,0.952,0.524,0.092
-0.625,-9.328,1.388,0.747,-0.298,-0.132
0.193,-11.034,1.318,0.554,-0.92,-0.588
1.307,-15.991,1.858,0.167,-1.691,-1.011
0.909,-20.668,1.836,-0.537,-1.54,-1.274
-0.769,-23.135,3.29,-1.893,-0.292,-0.723
-1.851,-7.583,5.077,-3.826,1.756,0.855
-0.894,4.427,7.087,-3.257,1.722,1.471
-4.857,15.027,4.104,-2.257,0.737,0.879
-5.555,21.246,1.416,-1.255,-0.244,0.519
-4.401,21.404,-1.614,0.363,-2.372,-0.132
-4.59,5.848,-5.258,2.549,-3.95,-1.297
-6.502,-5.223,-7.239,2.444,-2.77,-1.059
-3.174,-11.609,-4.889,2.028,-0.759,0.286
-1.933,-14.433,-2.182,1.956,0.437,1.029
-1.139,-12.887,-0.701,1.861,1.513,1.336
-0.871,-11.307,0.575,1.67,1.351,1.22
-1.139,-9.99,0.48,1.435,0.787,0.913
-1.926,-9.452,0.329,1.297,0.453,0.633
-1.286,-9.443,0.523,1.145,0.062,0.418
-0.459,-11.515,1.115,0.875,-0.63,-0.174
1.814,-16.388,2.107,0.335,-1.576,-0.961
2.031,-21.63,2.29,-0.787,-1.657,-1.57
-0.726,-24.788,6.591,-2.701,0.048,-1.346
-0.596,-6.788,8.721,-4.607,1.836,-0.58
1.782,6.511,10.645,-4.141,2.132,0.196
-3.019,15.234,7.682,-3.133,1.325,0.211
-4.332,22.152,5.311,-1.715,0.32,0.341
-2.891,24.242,0.159,0.566,-2.226,0.136
-4.745,4.926,-2.469,2.907,-3.976,-0.209
-8.054,-7.788,-5.846,2.96,-3.502,-0.178
-4.647,-13.013,-3.845,2.695,-1.411,0.698
-3.064,-15.592,-1.579,2.419,-0.268,1.214
-1.765,-14.779,-0.603,2.017,0.743,1.183
-0.612,-12.967,-0.562,1.479,0.678,0.789
-1.103,-11.426,0.051,0.955,0.381,0.235
-0.738,-11.232,0.608,0.467,-0.218,-0.315
-0.727,-13.577,0.727,0.011,-0.81,-0.97
1.014,-20.651,2.293,-0.8,-1.172,-1.624
-1.327,-26.002,3.908,-1.821,-0.638,-1.758
-4.938,-13.766,8.454,-3.597,1.252,-0.306
-3.696,1.623,6.329,-3.686,1.8,0.469
-4.399,10.349,5.866,-2.71,0.501,0.032
-8.492,21.487,1.187,-1.817,0.309,-0.193
-6.935,28.815,-1.715,-0.607,-1.15,-0.611
-4.153,15.619,-8.304,1.498,-3.323,-1.956
-5.129,0.219,-7.185,2.321,-3.273,-2.135
-3.931,-6.534,-7.564,2.049,-1.422,-0.739
-1.83,-11.225,-4.582,2.204,-0.611,0.487
-1.123,-13.455,-3.125,2.157,0.517,1.415
-0.287,-12.261,-1.06,1.869,0.916,1.621
-1.09,-11.107,-0.486,1.173,0.595,1.331
-1.849,-10.837,0.549,0.639,0.362,0.813
-0.812,-11.82,0.585,0.047,-0.147,0.215
-0.439,-16.372,1.347,-0.564,-0.67,-0.691
-2.059,-23.034,3.046,-1.415,-1.153,-1.821
-4.969,-26.395,7.301,-3.084,0.311,-2.135
-3.985,-8.112,4.444,-4.817,2.185,-1.251
-3.534,3.567,5.122,-4.069,1.082,-1.249
-3.861,12.272,0.335,-3.537,1.011,-1.117
-1.584,19.488,-3.57,-2.483,0.807,-0.198
-0.266,23.282,-9.271,-0.375,-1.24,0.262
-2.821,5.712,-7.465,1.956,-2.862,-0.098
-4.81,-4.827,-8.11,2.143,-1.364,0.57
-5.041,-9.556,-4.371,2.677,-0.648,1.302
-5.443,-11.133,-2.104,2.895,0.255,1.48
-3.126,-12.582,-0.308,2.72,0.898,1.265
-1.316,-12.529,0.635,2.287,0.639,0.626
0.144,-11.638,1.118,1.628,0.184,0.055
0.546,-10.931,1.647,0.998,-0.39,-0.292
1.101,-12.159,1.76,0.389,-0.93,-0.571
1.741,-17.183,1.566,-0.4,-1.404,-0.918
1.04,-21.911,2.297,-1.457,-1.371,-1.395
-1.693,-23.947,3.995,-3.04,-0.001,-1.143
-5.383,-11.865,7.399,-4.809,2.062,0.119
-5.661,0.703,6.105,-4.722,2.141,0.617
-3.212,10.218,6.423,-3.827,1.783,0.596
-1.785,21.323,3.736,-2.58,0.961,0.809
0.157,28.479,0.399,-0.412,-1.559,0.507
0.564,18.504,-2.453,2.18,-5.037,-0.81
-1.139,5.983,-1.04,3.158,-5.411,-1.091
-5.057,-1.601,-0.633,3.537,-4.313,-0.454
-5.767,-10.626,1.575,3.796,-3.038,0.164
-4.699,-17.297,3.315,3.499,-1.446,0.387
-1.273,-19.862,2.53,2.877,0.178,0.405
0.645,-18.533,2.388,2.008,0.78,0.278
0.959,-15.607,1.709,1.17,0.343,-0.108
1.131,-15.065,1.617,0.25,-0.136,-0.592
0.712,-18.069,1.841,-0.683,-0.478,-1.068
-0.321,-21.979,2.93,-1.883,-0.471,-1.507
-2.212,-23.339,4.773,-3.604,0.809,-1.29
-1.74,-8.705,6.448,-5.264,2.645,-0.106
-0.479,4.255,7.984,-4.474,1.758,0.625
-1.504,14.868,5.059,-3.544,1.273,0.508
-1.264,23.387,1.217,-2.187,0.353,0.53
-1.115,27.329,-2.31,0.015,-2.071,0.285
-3.545,12.891,-4.526,2.454,-4.747,-0.59
-6.288,0.652,-7.247,2.659,-3.748,-0.821
-5.332,-7.453,-4.908,2.968,-2.806,-0.168
-4.61,-12.964,-2.101,3.107,-1.469,0.416
-2.431,-16.277,-0.551,2.842,-0.194,0.492
-0.245,-16.182,-0.292,2.265,0.509,0.183
1.698,-14.937,0.657,1.413,0.418,-0.175
1.888,-13.445,0.73,0.53,-0.186,-0.515
3.211,-15.148,1.142,-0.242,-0.701,-0.906
3.14,-19.431,2.146,-1.148,-1.666,-1.356
1.643,-22.034,3.238,-2.129,-1.094,-1.488
-1.498,-22.612,5.08,-3.588,0.65,-0.846
1.574,-6.719,6.54,-5.111,2.655,0.868
0.207,6.002,7.245,-4.312,1.991,1.674
0.942,17.613,4.034,-3.411,2.321,1.406
1.992,25.95,-0.119,-2.301,1.274,0.868
3.713,28.219,-4.795,-0.082,-1.772,0.097
-0.871,10.58,-6.29,2.514,-4.299,-1.254
-1.207,0.286,-8.293,2.528,-3.595,-1.467
-3.243,-5.886,-6.156,2.761,-2.593,-0.504
-2.137,-10.624,-2.032,2.961,-1.25,0.706
-1.396,-12.173,1.642,2.834,0.251,1.511
-0.678,-10.368,2.286,2.402,0.984,1.988
-0.969,-10.658,3.165,2.029,1.027,2.124
-1.054,-13.962,3.823,1.558,0.175,1.83
-1.767,-20.56,4.92,0.698,-1.202,0.796
-4.492,-26.893,7.899,-0.923,-2.433,-0.749
-7.668,-30.164,12.095,-3.087,-1.884,-2.103
-9.358,-24.92,15.813,-5.021,-0.021,-1.822
-4.635,-4.508,14.804,-6.38,1.946,-0.693
-3.879,9.878,14.878,-5.178,0.936,-0.654
-3.915,22.114,7.116,-3.836,1.699,-0.389
-1.001,27.516,0.786,-1.529,-0.077,0.077
-1.528,21.186,-5.122,1.043,-2.481,-0.441
-5.47,2.075,-4.447,3.324,-3.697,-1.228
-5.826,-6.845,-6.353,3.106,-1.35,-0.396
-3.005,-13.388,-2.327,3.26,-0.819,0.519
-2.248,-14.977,-1.197,2.856,0.665,0.98
0.423,-13.332,0.741,2.155,1.49,1.064
0.319,-12.19,0.391,1.234,1.075,0.896
-0.62,-11.56,-0.026,0.489,0.457,0.518
-0.439,-12.11,-0.046,0.008,0.301,0.11
0.713,-15.903,0.773,-0.329,-0.433,-0.563
1.337,-22.856,2.616,-0.895,-1.427,-1.666
-0.228,-24.805,3.781,-2.234,-0.548,-1.761
-1.389,-11.492,6.97,-3.804,1.215,-0.109
0.336,1.912,6.95,-3.408,0.595,0.876
-1.06,11.635,5.266,-2.618,0.005,0.621
-3.8,23.521,0.962,-1.885,-0.199,0.65
-3.889,28.971,-2.011,-0.227,-2.007,0.133
-3.274,13.563,-4.895,2.246,-4.26,-1.309
-5.052,-1.032,-5.822,2.796,-3.633,-1.728
-4.612,-8.793,-5.351,2.733,-2.056,-0.685
-2.314,-14.331,-2.659,2.771,-0.683,0.286
-0.921,-16.966,-0.691,2.632,0.493,0.982
-0.454,-15.235,-1.027,2.056,0.921,0.948
-0.815,-12.982,-0.495,1.232,0.932,0.604
-0.695,-11.432,0.105,0.603,0.389,0.2
0.212,-10.713,0.516,0.167,-0.088,-0.146
2.125,-13.621,1.748,-0.198,-0.525,-0.674
6.342,-21.327,5.284,-0.899,-0.96,-0.995
2.705,-24.167,7.136,-2.443,-0.091,-0.283
3.209,-6.612,10.469,-4.108,1.738,0.773
6.223,4.28,12.547,-3.295,2.293,1.418
3.006,13.345,12.723,-1.7,0.798,0.949
-3.591,24.596,7.799,-0.608,0.127,0.339
-1.431,28.064,5.881,1.46,-1.524,-0.717
-3.103,9.061,1.04,3.818,-2.99,-1.401
-5.372,-4.158,-1.661,3.805,-2.796,-1.494
-2.868,-11.148,-3.435,2.805,-0.81,-0.573
-0.306,-14.933,-1.83,2.611,0.498,0.326
0.422,-15.59,-1.86,2.308,1.202,0.751
0.937,-14.218,-0.413,1.726,0.977,0.615
-1.087,-11.359,-0.191,1.009,0.435,0.352
-1.455,-10.534,0.353,0.523,0.265,0.231
-0.53,-11.378,1.391,0.199,0.247,0.087
2.028,-13.81,2.565,-0.071,0.016,-0.354
4.319,-19.446,3.414,-0.505,-0.631,-0.707
3.532,-23.031,5.094,-1.288,-0.518,-0.581
0.277,-19.069,8.286,-3.01,1.159,0.64
-2.431,-1.481,6.279,-4.221,2.798,1.095
0.568,5.068,10.635,-3.213,1.345,1.237
-6.584,14.511,6.456,-2.317,0.733,0.554
-4.943,21.602,2.989,-0.882,-0.105,-0.248
-2.852,18.923,-1.156,1.478,-2.887,-1.789
-1.681,1.946,-0.473,3.254,-5.128,-2.08
-6.502,-5.213,-6.829,2.917,-3.198,-1.573
-0.792,-10.699,-3.94,2.987,-1.447,-0.454
-0.677,-15.18,-2.523,2.575,-0.615,0.287
-0.43,-16.413,-2.047,2.037,0.613,0.711
0.494,-15.434,-1.46,1.503,1.221,0.76
0.413,-12.125,-0.163,0.989,0.955,0.408
0.666,-11.605,0.18,0.499,0.18,-0.052
1.412,-13.705,0.742,0.273,-0.286,-0.622
2.979,-16.42,1.469,-0.134,-1.385,-1.071
2.521,-20.223,3.074,-1.15,-0.942,-0.923
1.209,-19.845,6.203,-3.0,0.887,0.114
0.008,-1.057,3.952,-4.818,2.86,0.885
2.145,7.153,8.685,-3.854,1.399,1.067
-2.967,14.135,5.322,-3.175,1.798,0.572
-2.571,21.258,1.758,-1.688,0.645,-0.213
-2.1,21.417,-2.012,0.683,-1.733,-1.254
-2.865,3.065,-0.132,3.133,-3.573,-1.462
-6.539,-4.36,-4.724,2.834,-1.451,-0.713
-2.376,-10.208,-1.907,3.086,-0.641,0.488
-1.669,-15.053,0.121,2.96,0.088,1.172
-0.613,-16.421,0.196,2.539,0.663,1.224
0.697,-15.693,0.372,1.943,0.732,0.8
0.676,-13.687,-0.303,1.357,0.285,0.109
1.276,-12.618,-0.011,0.798,-0.223,-0.501
1.957,-14.544,0.319,0.321,-0.748,-1.016
3.731,-19.393,2.286,-0.277,-1.219,-1.461
2.337,-22.921,4.993,-1.934,-0.536,-1.091
0.787,-10.142,9.904,-3.751,1.281,0.283
3.256,2.896,9.108,-4.191,1.989,1.342
1.329,12.268,7.554,-3.567,0.634,0.978
-2.381,21.99,2.937,-2.872,0.627,0.916
-1.65,27.731,-1.504,-0.804,-0.857,0.585
-2.042,15.534,-7.105,1.709,-3.153,-0.354
-6.627,2.452,-6.358,2.86,-3.853,-0.79
-7.13,-4.11,-5.504,2.981,-2.022,0.051
-5.152,-9.235,-2.164,3.167,-1.16,0.541
-5.148,-11.922,-0.479,3.006,-0.091,0.564
-2.727,-12.234,0.468,2.379,0.956,0.342
-1.093,-11.411,0.327,1.688,1.425,-0.053
0.734,-11.569,0.819,1.031,1.561,-0.204
1.541,-13.126,1.502,0.67,0.91,-0.353
3.151,-17.422,2.428,0.227,-0.121,-0.665
2.668,-22.487,4.301,-0.617,-1.493,-1.354
0.879,-27.099,7.657,-2.183,-1.395,-1.316
-0.107,-11.737,10.641,-3.937,0.131,0.187
0.928,2.754,10.528,-3.668,-0.1,0.859
-2.269,13.793,7.38,-2.824,-0.98,0.494
-3.924,20.99,3.288,-1.48,-0.942,0.753
-4.37,26.619,-1.056,0.659,-2.006,0.52
-5.516,11.48,-4.811,2.926,-4.007,-0.896
-8.546,-1.164,-5.724,3.034,-3.142,-1.135
-6.359,-8.087,-3.046,2.706,-0.878,-0.044
-4.061,-11.294,-0.315,2.42,0.52,0.625
-1.826,-12.902,1.045,2.049,1.357,0.986
0.07,-12.838,1.256,1.624,1.754,1.015
1.896,-13.555,1.331,1.117,1.285,0.771
2.459,-16.062,1.216,0.556,0.462,0.215
2.775,-21.967,2.272,-0.253,-0.69,-0.747
0.422,-26.495,5.942,-1.466,-0.813,-1.497
-3.937,-22.482,8.286,-3.308,0.792,-0.857
0.594,-3.84,6.734,-4.131,1.1,-0.061
-0.694,5.147,6.282,-3.577,0.14,-0.297
-3.09,15.642,2.069,-3.112,-0.084,-0.328
-1.764,23.337,-4.924,-2.084,-0.6,-0.167
0.634,21.555,-9.751,0.002,-2.94,-1.004
-5.643,5.11,-9.418,1.444,-3.44,-1.66
-6.064,-0.617,-9.52,1.657,-2.638,-0.958
-5.55,-5.109,-6.755,2.165,-1.758,0.056
-5.076,-8.428,-4.363,2.471,-1.088,0.682
-3.883,-11.058,-1.562,2.441,0.068,0.964
-2.623,-12.787,-0.639,1.943,0.479,0.819
-1.235,-14.644,0.269,1.184,0.976,0.369
-0.332,-16.154,0.105,0.369,0.365,-0.433
-0.336,-19.716,1.838,-0.468,-0.112,-1.224
-0.943,-23.946,3.892,-1.325,-0.803,-2.071
-3.292,-24.849,7.012,-2.944,0.205,-1.829
-3.275,-6.581,7.1,-4.568,1.837,-0.641
2.306,2.649,11.349,-3.729,1.384,0.378
0.347,12.237,7.901,-3.199,0.948,0.175
2.74,22.766,3.209,-2.563,1.009,0.364
3.869,28.105,-1.792,-0.528,-1.492,-0.113
1.157,12.884,-3.074,2.104,-4.29,-1.149
-5.561,4.944,-7.063,2.587,-3.594,-1.467
-4.023,-1.59,-5.221,3.41,-2.703,-0.568
-5.39,-8.359,-1.999,3.899,-2.124,0.067
-4.414,-12.242,-0.124,3.648,-0.594,0.351
-2.075,-13.747,0.549,2.886,0.651,0.427
-1.0,-12.479,0.133,1.897,0.929,0.224
-0.884,-11.328,0.445,0.995,0.796,0.161
-1.911,-10.299,-0.507,0.439,0.094,-0.017
-2.239,-11.942,0.451,0.199,-0.123,-0.202
-1.989,-13.455,0.453,-0.159,-0.985,-0.683
-1.291,-16.608,0.385,-0.705,-1.36,-0.944
-1.068,-19.937,0.49,-1.253,-1.459,-1.236
-2.045,-23.39,2.681,-2.16,-0.54,-1.346
-2.269,-18.71,5.668,-3.95,1.327,-0.637
-3.775,-0.58,4.571,-5.463,3.727,0.446
2.66,8.979,9.487,-4.316,3.003,1.337
-1.896,17.643,6.802,-3.049,1.338,0.698
0.74,25.526,2.942,-1.675,0.516,0.541
-0.276,25.249,-1.223,0.894,-2.728,-0.149
-1.098,7.171,0.811,3.428,-5.226,-0.772
-7.829,-1.79,-3.978,3.578,-4.139,-1.449
-2.258,-9.138,-1.741,3.452,-1.895,-0.728
-1.99,-14.683,0.147,3.274,-1.566,-0.535
-0.126,-17.426,0.636,2.422,0.114,-0.362
2.427,-15.841,-0.393,1.484,0.636,-0.333
2.723,-14.182,-0.577,0.581,0.45,-0.366
3.789,-15.017,0.478,-0.211,-0.382,-0.568
4.638,-18.201,1.281,-0.963,-0.96,-0.904
4.952,-22.323,3.392,-1.601,-1.518,-1.301
2.463,-22.968,6.721,-2.955,0.038,-0.622
1.731,-9.431,11.338,-4.583,2.008,0.767
4.723,4.207,12.547,-4.173,1.76,2.039
1.116,14.466,9.688,-3.239,0.353,1.726
0.108,23.964,5.206,-2.372,0.673,1.414
2.085,28.467,0.378,-0.299,-1.624,0.449
-0.312,16.217,-4.405,2.219,-4.684,-1.015
-5.755,3.985,-6.431,2.746,-4.219,-1.865
-4.102,-3.06,-4.38,2.825,-2.214,-1.054
-3.328,-8.792,-2.622,3.072,-1.712,-0.257
-2.562,-13.515,-0.669,2.847,-0.435,0.131
0.048,-14.82,-0.305,2.287,0.928,0.481
0.931,-13.56,-0.498,1.61,1.066,0.586
0.994,-12.781,-0.485,1.066,0.896,0.55
1.641,-13.666,0.399,0.57,0.384,0.28
2.512,-16.848,0.743,0.073,-0.501,-0.361
3.624,-21.102,1.975,-0.764,-1.35,-1.241
2.727,-24.317,4.209,-1.758,-1.217,-1.479
0.092,-21.451,7.262,-3.532,0.441,-0.656
2.517,-4.682,4.604,-4.853,1.401,0.005
2.889,7.529,5.026,-4.152,1.046,0.606
0.827,17.226,1.527,-3.039,0.713,0.692
0.341,24.179,-2.685,-1.571,-0.447,0.205
1.812,22.783,-6.386,0.886,-3.199,-0.947
-2.594,7.425,-5.015,2.987,-4.033,-1.373
-4.595,-2.875,-5.847,2.986,-2.74,-1.191
-3.527,-8.964,-4.045,2.869,-1.23,-0.443
-1.92,-13.42,-1.625,2.574,0.295,0.26
-0.532,-14.355,-0.972,2.006,1.32,0.736
0.251,-13.858,-0.226,1.304,1.327,0.813
0.405,-11.724,-0.047,0.829,1.07,0.629
0.822,-10.968,0.416,0.453,0.483,0.427
1.707,-12.944,1.572,0.182,-0.514,-0.067
3.363,-17.177,1.951,-0.221,-1.586,-0.847
4.092,-22.064,3.294,-1.025,-2.271,-1.407
2.54,-25.774,5.605,-2.736,-0.937,-1.093
0.4,-7.786,11.018,-4.476,1.02,0.332
0.581,6.848,9.279,-4.293,1.346,1.393
-2.272,16.22,7.856,-3.467,0.654,1.423
-4.02,24.702,3.648,-2.465,1.015,1.239
-3.244,30.879,-0.437,-0.29,-1.304,0.536
-3.033,13.0,-6.973,2.111,-3.641,-0.688
-5.248,-0.066,-6.624,2.686,-3.384,-0.91
-3.963,-6.567,-6.61,2.521,-1.186,0.134
-2.289,-12.089,-3.995,2.598,-0.736,0.954
-1.194,-14.704,-2.665,2.295,0.016,1.371
0.275,-13.951,-1.683,1.812,0.408,1.268
1.108,-12.423,-1.626,1.231,0.069,0.732
0.855,-11.724,-0.558,0.96,-0.622,0.061
1.308,-12.827,0.017,0.729,-1.238,-0.651
1.751,-15.952,0.572,0.4,-1.876,-1.403
1.664,-19.77,1.257,-0.247,-2.229,-1.817
0.242,-23.283,4.549,-1.681,-1.117,-1.527
-1.188,-17.369,8.487,-3.558,0.869,-0.683
-2.036,1.159,5.071,-4.408,2.803,0.011
-2.511,11.41,7.19,-3.056,1.84,0.447
-6.298,17.915,3.905,-1.743,1.184,0.275
-5.007,21.982,0.357,0.209,-0.408,-0.082
-5.575,15.648,-5.745,2.332,-2.408,-0.685
-5.63,-2.722,-2.371,3.421,-3.461,-0.644
-6.229,-10.864,-5.876,2.433,-1.545,-0.268
-1.989,-15.089,-3.041,1.728,0.205,0.396
-0.749,-15.819,-2.775,1.068,0.964,0.543
1.486,-14.295,-0.569,0.675,1.188,0.507
2.162,-11.092,-0.367,0.445,0.684,0.168
2.61,-9.774,1.129,0.347,0.216,-0.189
3.03,-10.201,1.336,0.339,-0.965,-0.68
2.805,-13.766,1.954,0.308,-2.079,-1.46
3.032,-18.385,2.688,0.053,-3.267,-2.027
0.972,-23.146,4.607,-0.532,-3.586,-1.989
-3.761,-23.844,7.454,-2.446,-1.542,-1.058
0.733,-6.313,11.296,-4.318,0.843,-0.78
3.706,7.967,10.84,-4.038,1.742,0.377
0.927,18.175,9.432,-2.653,1.214,0.647
-0.395,25.297,5.186,-1.101,0.612,0.591
1.908,24.369,3.225,1.557,-1.769,0.022
-4.454,6.521,0.037,4.112,-3.053,0.417
-8.23,-6.318,1.036,4.44,-2.288,0.212
-5.478,-14.115,2.246,3.639,-0.267,0.622
-2.103,-18.512,4.171,2.631,0.787,0.724
0.765,-16.736,2.385,1.651,1.49,0.453
2.415,-14.009,1.395,0.756,1.003,0.094
2.433,-11.116,0.354,0.138,0.202,-0.134
2.616,-10.569,0.355,-0.094,-0.378,-0.403
3.059,-11.507,0.635,-0.115,-1.162,-0.828
4.201,-17.01,2.016,-0.191,-2.305,-1.31
2.581,-20.944,2.823,-0.565,-2.538,-1.215
-0.531,-22.441,4.88,-1.948,-0.729,-0.24
0.422,-5.417,8.295,-3.775,1.322,0.386
5.103,8.003,10.094,-3.291,2.491,1.014
-0.09,19.079,9.174,-1.887,1.82,0.952
-1.948,24.765,7.017,-0.632,1.196,0.528
-0.042,23.22,4.428,1.486,-1.195,-0.449
-2.526,5.241,0.29,3.963,-2.461,-0.687
-7.644,-7.747,-1.57,3.885,-2.117,-0.558
-4.207,-15.132,-1.483,2.832,0.019,0.3
-0.857,-18.438,-0.172,2.106,1.009,0.78
0.459,-16.219,0.139,1.325,1.742,0.81
1.372,-13.639,-0.068,0.461,1.117,0.551
0.4,-11.278,-0.233,0.011,0.001,0.126
0.289,-9.52,-0.395,-0.236,-0.597,-0.328
1.194,-10.336,0.54,-0.454,-1.276,-0.85
2.733,-14.535,1.988,-0.703,-2.596,-1.543
3.261,-20.512,5.861,-1.228,-4.031,-2.353
0.373,-26.151,10.851,-2.622,-3.912,-2.48
-4.207,-21.571,15.894,-4.329,-1.957,-1.329
-2.733,-2.413,13.412,-5.556,-0.713,-0.447
-3.151,10.581,12.981,-4.552,-1.085,0.021
-5.264,20.983,6.233,-3.379,-0.423,0.729
-5.228,27.906,0.14,-1.197,-0.928,1.267
-3.881,22.112,-3.767,1.509,-3.158,0.953
-8.893,3.451,-1.495,3.726,-3.48,0.923
-10.385,-6.788,-1.682,3.611,-1.16,1.395
-9.141,-12.792,1.301,3.471,-0.183,1.537
-5.804,-15.198,2.235,2.998,0.642,1.1
-2.355,-14.231,0.987,2.229,1.1,0.323
-0.235,-12.951,0.347,1.494,0.596,-0.212
0.259,-11.041,-0.137,1.019,-0.097,-0.548
1.484,-10.156,0.76,0.687,-0.438,-0.717
2.697,-12.174,2.528,0.342,-1.309,-0.922
3.524,-16.931,3.732,-0.193,-2.543,-1.157
2.78,-22.184,5.116,-1.083,-2.899,-1.087
-1.041,-25.71,7.372,-2.339,-1.449,-0.424
-1.938,-8.386,12.347,-4.128,0.579,1.222
1.454,3.961,14.983,-3.45,0.771,2.242
-0.525,14.897,11.481,-3.068,0.715,1.878
-1.677,25.735,6.377,-2.061,1.013,1.203
0.795,31.617,2.165,-0.162,-1.708,0.307
-2.018,14.131,-3.36,2.547,-4.01,-1.117
-8.215,2.654,-6.785,2.792,-3.225,-1.446
-7.448,-5.268,-3.579,3.401,-1.045,-0.322
-5.335,-12.492,0.7,3.525,-0.25,0.546
-3.587,-16.488,2.822,3.042,1.509,0.979
-0.308,-16.79,2.443,2.228,1.959,1.051
1.405,-14.783,1.258,1.409,1.55,0.755
1.798,-12.179,-0.172,0.759,0.493,0.339
2.17,-10.149,-1.104,0.373,-0.279,-0.002
2.323,-11.523,-1.356,0.272,-0.927,-0.408
3.351,-15.83,-0.89,0.062,-0.841,-0.747
3.69,-21.331,2.125,-0.824,-0.309,-0.795
1.913,-22.574,4.189,-2.294,0.994,-0.195
1.776,-7.978,7.245,-4.002,2.927,1.343
3.76,4.368,9.81,-3.351,2.647,2.064
3.127,14.663,9.169,-2.977,1.255,1.423
-0.955,24.086,2.892,-1.638,-0.617,0.578
-1.4,25.705,1.924,0.722,-3.448,-0.255
-4.431,8.85,-0.978,3.401,-5.632,-1.918
-7.154,-4.437,-4.04,3.266,-4.776,-2.574
-7.748,-10.22,-3.928,3.29,-2.007,-1.957
-2.983,-14.782,0.793,2.972,0.445,-1.182
-0.915,-15.899,1.08,2.113,2.534,-0.7
2.05,-14.001,1.421,1.302,2.65,-0.071
1.489,-10.401,1.713,0.845,2.208,0.366
1.824,-9.702,2.023,0.59,0.769,0.639
2.143,-10.951,2.332,0.457,-0.443,0.463
3.752,-14.496,2.052,0.335,-1.343,0.053
4.235,-20.668,0.93,-0.344,-0.985,-0.321
3.84,-25.051,5.844,-1.99,0.196,-0.335
0.739,-11.289,12.014,-3.818,2.024,1.061
1.329,4.737,12.37,-3.871,2.69,2.327
-2.634,13.152,12.033,-3.04,1.474,1.486
-5.114,24.559,9.984,-2.174,0.784,0.534
-5.856,30.321,5.124,-0.019,-1.999,-0.385
-4.859,15.146,-2.167,2.591,-4.44,-2.18
-6.059,-0.67,-5.063,3.275,-4.133,-3.432
-2.667,-6.86,-4.638,3.029,-0.847,-2.374
1.208,-12.893,-0.656,2.988,0.601,-1.14
2.028,-14.462,-0.342,2.488,2.061,-0.289
3.69,-12.677,1.098,1.854,2.76,0.324
2.32,-11.797,2.806,1.38,1.871,0.647
0.597,-10.737,2.785,0.988,0.062,0.635
-2.222,-10.978,2.166,0.699,-0.965,0.389
-0.715,-14.589,3.08,0.374,-1.191,0.114
-0.433,-19.176,2.372,-0.37,-1.728,-0.354
0.929,-22.209,3.211,-1.53,-1.015,-0.772
0.183,-23.818,6.863,-3.07,0.293,-0.411
0.954,-9.896,11.035,-4.795,2.273,1.198
2.382,5.166,12.192,-4.809,4.253,2.218
5.034,12.672,12.213,-4.418,3.041,2.006
4.623,22.677,9.331,-3.128,1.795,1.786
5.764,30.455,4.461,-0.95,-0.991,0.899
1.756,19.49,0.613,1.606,-4.483,-1.198
-1.762,7.729,-1.225,2.65,-6.522,-2.258
-4.843,-0.081,-0.53,3.559,-4.767,-1.899
-5.55,-8.629,0.89,3.743,-3.544,-1.769
-4.946,-15.915,2.455,3.359,-1.444,-1.462
-1.747,-18.348,1.98,2.669,0.262,-1.046
-0.35,-17.856,1.868,1.755,0.943,-0.862
-0.182,-13.294,1.634,0.917,0.779,-0.798
0.218,-11.639,2.161,0.385,0.157,-0.484
0.782,-13.136,1.937,-0.043,-0.564,-0.431
2.555,-16.545,3.142,-0.567,-1.445,-0.581
2.057,-19.802,3.629,-1.457,-1.748,-0.518
2.882,-22.022,8.443,-3.151,0.13,0.534
0.38,-3.977,12.334,-4.889,1.99,1.837
11.137,7.576,18.243,-4.125,1.868,2.788
4.871,15.012,14.486,-3.113,1.043,2.244
5.062,23.858,11.417,-1.966,1.001,1.601
2.195,28.602,6.147,0.308,-2.135,-0.17
3.014,11.958,2.981,2.771,-4.642,-1.827
-8.652,2.176,-3.457,3.117,-3.782,-2.713
-1.796,-4.95,0.148,3.674,-1.251,-2.006
0.285,-13.313,3.073,4.166,-0.824,-1.421
3.126,-17.125,3.327,3.903,0.605,-0.679
4.784,-18.118,2.362,3.21,1.284,-0.202
4.077,-16.708,2.476,2.14,0.825,-0.066
2.13,-13.59,2.067,0.92,0.111,0.029
1.645,-12.808,1.739,0.035,-0.255,-0.049
2.541,-16.444,3.346,-0.516,-1.049,-0.274
2.323,-19.797,4.448,-1.323,-1.547,-0.42
2.801,-23.79,7.007,-2.699,0.042,0.186
-0.271,-12.826,13.126,-4.39,1.718,1.517
