ax,ay,az,gx,gy,gz
-1.163,-8.896,-3.842,-0.155,0.18,-0.212
-0.811,-8.609,-3.567,-0.13,0.129,-0.14
-0.823,-8.468,-3.677,-0.074,0.012,-0.053
-1.035,-8.355,-4.164,-0.022,-0.068,0.041
-1.239,-8.17,-4.739,-0.013,-0.051,0.127
-1.461,-7.863,-5.279,-0.05,-0.047,0.205
-2.031,-7.564,-5.753,-0.097,0.006,0.209
-2.485,-7.293,-6.122,-0.111,0.109,0.146
-2.612,-7.15,-6.323,-0.066,0.098,0.036
-2.683,-7.008,-6.483,0.008,0.039,-0.092
-2.549,-7.001,-6.437,0.057,0.012,-0.244
-1.948,-6.855,-6.097,0.029,-0.01,-0.33
-0.889,-6.409,-5.303,-0.072,-0.043,-0.289
-0.066,-6.146,-4.107,-0.201,-0.09,-0.092
0.096,-5.913,-3.136,-0.346,-0.21,0.361
-1.05,-6.381,-2.951,-0.462,-0.299,0.985
-2.732,-7.599,-3.868,-0.553,-0.533,1.374
-4.786,-9.748,-5.855,-0.668,-0.539,1.408
-6.119,-11.891,-7.975,-0.8,-0.024,1.027
-6.277,-13.409,-8.711,-0.886,0.584,0.189
-4.821,-14.292,-8.28,-0.999,1.305,-0.75
-2.652,-14.525,-6.973,-1.165,2.051,-1.196
-0.229,-12.908,-4.214,-1.445,2.504,-0.898
2.151,-8.686,-1.469,-2.06,2.475,0.346
3.867,2.432,-0.089,-2.895,1.826,1.734
4.206,7.851,-1.567,-2.752,0.773,2.604
4.302,10.935,-3.571,-2.277,-0.14,2.262
4.195,14.648,-5.501,-1.547,-0.492,1.441
3.558,15.652,-7.446,-0.379,-1.404,-0.097
0.816,8.059,-8.789,0.967,-2.093,-1.674
-1.683,4.944,-8.297,1.307,-2.017,-2.766
-2.795,3.445,-6.843,1.471,-1.652,-2.816
-3.426,-0.049,-6.096,1.54,-2.008,-2.809
-3.8,-4.334,-5.233,1.487,-1.719,-2.627
-1.934,-7.146,-5.139,1.513,-0.881,-2.106
1.337,-9.278,-4.897,1.482,-0.379,-1.442
2.449,-10.731,-5.006,1.266,-0.356,-0.787
2.569,-11.823,-5.21,0.952,-0.099,-0.197
1.685,-11.726,-6.062,0.646,0.083,0.198
1.084,-11.99,-5.94,0.298,0.301,0.297
0.281,-11.504,-4.868,0.021,0.29,0.192
0.031,-10.632,-3.86,-0.213,0.295,0.037
0.138,-9.594,-3.083,-0.397,0.232,-0.022
0.599,-9.338,-2.601,-0.556,0.243,0.109
0.666,-9.998,-3.54,-0.757,0.223,0.258
0.439,-11.534,-5.076,-0.937,0.331,0.36
0.419,-13.174,-6.157,-1.128,0.813,0.423
0.313,-14.463,-6.752,-1.392,1.212,0.478
0.099,-13.958,-6.157,-1.821,1.79,0.662
0.275,-10.578,-4.792,-2.368,2.42,1.285
1.577,-3.043,-3.078,-3.058,3.026,2.305
2.895,3.897,-3.063,-3.037,2.252,2.815
3.511,6.856,-3.781,-2.622,1.323,2.701
4.524,9.315,-4.991,-1.968,0.77,2.149
5.643,9.774,-6.17,-1.118,-0.051,1.233
4.742,7.157,-7.678,0.041,-1.259,-0.237
3.013,5.019,-7.903,0.657,-1.786,-1.406
0.832,5.18,-7.934,0.998,-1.856,-2.112
-0.638,4.798,-7.479,1.229,-2.008,-2.512
-1.89,2.54,-7.087,1.404,-2.304,-2.813
-2.902,-0.342,-6.836,1.447,-2.265,-2.752
-3.223,-3.446,-6.547,1.412,-1.635,-2.363
-1.968,-6.027,-5.933,1.351,-1.11,-1.875
-1.38,-8.389,-5.623,1.301,-1.068,-1.417
-1.156,-9.075,-5.303,1.157,-0.838,-1.014
-0.795,-9.496,-5.301,0.983,-0.566,-0.666
-0.378,-10.258,-5.389,0.708,-0.304,-0.404
-0.483,-10.437,-5.39,0.439,-0.054,-0.169
-0.37,-10.747,-5.372,0.154,0.184,-0.05
-0.477,-10.647,-5.088,-0.023,0.38,0.004
-0.277,-10.329,-4.267,-0.18,0.416,-0.005
0.047,-9.38,-3.385,-0.255,0.316,0.019
0.4,-8.076,-2.819,-0.336,0.071,0.207
-0.283,-7.681,-3.339,-0.375,-0.136,0.556
-1.361,-9.104,-5.134,-0.485,-0.094,0.764
-2.1,-11.541,-7.088,-0.68,0.382,0.655
-2.123,-13.564,-7.54,-0.921,1.231,0.378
-1.753,-14.988,-7.357,-1.212,2.009,0.077
-0.659,-14.754,-6.37,-1.639,2.629,-0.019
1.155,-11.919,-3.987,-2.219,2.975,0.448
4.078,-5.254,-1.273,-3.122,3.173,1.884
4.639,3.903,-1.21,-3.033,1.931,2.736
3.654,5.776,-3.061,-2.683,0.644,2.778
4.256,8.672,-4.472,-2.098,0.417,2.241
5.421,9.65,-5.816,-1.273,-0.091,1.423
3.711,7.904,-7.873,-0.031,-0.861,-0.028
3.339,3.527,-8.778,0.363,-0.793,-1.027
3.572,5.305,-8.098,0.677,-0.823,-1.512
1.637,4.411,-7.857,0.928,-1.523,-1.774
-0.61,3.865,-7.682,1.17,-1.817,-2.119
-1.743,2.081,-7.447,1.396,-2.104,-2.414
-2.533,-1.294,-7.03,1.501,-1.985,-2.422
-2.361,-3.824,-6.856,1.441,-1.513,-2.137
-1.278,-6.266,-6.274,1.286,-1.357,-1.755
-1.398,-7.631,-6.619,1.126,-1.282,-1.383
-1.004,-8.534,-6.505,1.001,-0.977,-1.029
-0.834,-8.416,-6.582,0.875,-0.85,-0.706
-0.708,-9.005,-6.714,0.694,-0.576,-0.47
-0.7,-9.169,-6.922,0.501,-0.207,-0.265
-0.653,-10.054,-6.452,0.294,0.047,-0.123
-0.719,-10.284,-5.764,0.089,0.276,-0.037
-0.581,-10.171,-5.077,-0.092,0.371,-0.065
-0.25,-9.641,-3.991,-0.16,0.364,-0.05
-0.102,-8.683,-2.94,-0.196,0.189,0.056
-0.023,-7.312,-2.414,-0.254,0.052,0.285
-0.574,-6.873,-3.179,-0.303,-0.137,0.651
-1.513,-8.52,-5.112,-0.456,-0.212,0.96
-3.21,-10.932,-7.645,-0.751,-0.015,0.828
-3.978,-12.969,-8.764,-1.022,0.954,0.345
-2.852,-15.194,-8.185,-1.315,1.928,-0.164
-1.747,-15.521,-6.808,-1.781,2.467,-0.384
0.112,-11.966,-3.81,-2.419,3.202,0.196
4.335,-0.126,-0.571,-3.271,3.495,1.394
6.108,6.567,-0.134,-3.177,1.894,2.398
5.412,10.227,-2.099,-2.785,0.111,2.554
4.862,13.585,-3.833,-2.147,-0.221,2.082
4.773,15.044,-6.076,-1.1,-0.804,0.921
1.971,8.127,-8.094,0.398,-1.754,-0.627
-0.228,5.603,-9.05,0.953,-1.564,-1.879
-1.228,4.685,-8.874,1.249,-0.844,-2.276
-1.125,3.13,-8.418,1.53,-1.028,-2.322
-1.627,0.117,-7.597,1.679,-1.436,-2.226
-1.776,-2.771,-6.826,1.69,-1.542,-1.945
-1.011,-5.438,-6.058,1.694,-1.287,-1.415
-0.072,-7.305,-5.268,1.676,-1.259,-0.94
-0.187,-9.178,-5.181,1.528,-1.252,-0.551
-0.359,-9.867,-5.718,1.253,-0.76,-0.239
-0.219,-10.133,-6.044,0.942,-0.268,0.028
-0.429,-10.292,-6.101,0.575,0.044,0.184
-1.091,-9.864,-5.84,0.222,0.405,0.298
-1.058,-9.942,-5.385,-0.061,0.465,0.321
-1.536,-9.709,-4.998,-0.173,0.377,0.227
-1.341,-9.548,-4.495,-0.176,0.578,0.115
-0.825,-9.351,-3.823,-0.135,0.539,-0.035
-0.027,-9.058,-3.371,-0.107,0.342,-0.153
0.339,-8.221,-3.01,-0.117,0.206,-0.15
0.809,-7.81,-3.007,-0.16,-0.007,0.111
0.12,-8.575,-4.518,-0.289,-0.383,0.352
-0.977,-9.856,-6.249,-0.501,-0.298,0.442
-1.527,-11.118,-7.421,-0.748,0.138,0.397
-1.636,-12.329,-7.723,-1.055,0.702,0.285
-1.705,-13.314,-7.444,-1.536,1.242,0.049
-1.129,-11.756,-5.993,-2.051,1.82,0.085
0.102,-8.32,-4.449,-2.49,2.196,0.719
1.229,-2.886,-3.784,-2.884,2.322,1.78
2.752,3.067,-3.69,-2.835,1.913,2.584
3.492,6.773,-4.103,-2.357,0.779,2.824
3.202,8.41,-5.121,-1.768,0.192,2.479
4.047,8.642,-6.219,-1.121,-0.104,1.682
4.286,7.212,-7.32,-0.326,-0.755,0.431
2.929,5.371,-8.518,0.207,-1.252,-0.864
1.602,5.724,-9.236,0.538,-0.877,-1.745
1.227,6.003,-9.178,0.886,-0.898,-2.302
-0.055,5.124,-8.932,1.249,-1.17,-2.72
-1.062,3.33,-8.142,1.468,-1.356,-2.861
-1.406,0.307,-7.237,1.574,-1.222,-2.658
-0.953,-2.534,-6.249,1.651,-1.1,-2.245
-0.093,-5.208,-5.19,1.69,-1.054,-1.718
0.224,-6.98,-4.995,1.653,-1.179,-1.254
0.145,-8.303,-5.125,1.584,-0.87,-0.796
0.482,-9.397,-5.72,1.377,-0.403,-0.323
0.199,-10.658,-6.408,1.049,-0.156,-0.006
-0.345,-11.152,-6.939,0.723,0.307,0.186
-0.684,-11.363,-6.344,0.407,0.578,0.239
-0.743,-11.296,-5.538,0.1,0.711,0.123
-0.868,-10.506,-4.333,-0.068,0.606,-0.091
-0.404,-9.375,-3.218,-0.11,0.578,-0.268
0.052,-8.462,-2.529,-0.108,0.242,-0.35
0.542,-7.741,-2.584,-0.081,0.115,-0.191
1.022,-7.896,-3.549,-0.05,-0.136,0.166
0.917,-9.512,-5.227,-0.158,-0.33,0.522
0.242,-11.286,-6.648,-0.43,-0.197,0.713
-0.101,-12.642,-7.148,-0.793,0.444,0.777
0.042,-13.412,-6.917,-1.217,1.096,0.782
-0.009,-13.088,-6.139,-1.736,1.435,0.777
-0.687,-10.086,-5.036,-2.214,1.692,0.95
-0.522,-5.573,-3.917,-2.598,2.341,1.552
0.605,0.333,-3.702,-2.767,2.377,2.29
2.028,4.758,-4.087,-2.56,1.411,2.561
2.199,7.023,-5.192,-2.039,0.38,2.153
3.036,8.62,-6.151,-1.311,0.128,1.392
3.969,8.928,-7.055,-0.432,-0.556,0.275
3.354,7.238,-8.039,0.392,-1.441,-0.976
0.804,6.19,-8.962,0.979,-1.608,-1.957
-0.718,5.914,-8.799,1.408,-1.194,-2.385
-1.354,3.701,-8.096,1.748,-1.295,-2.535
-2.165,0.598,-7.263,1.915,-1.806,-2.513
-2.899,-2.534,-6.694,1.91,-1.819,-2.354
-2.134,-6.01,-6.038,1.787,-1.332,-1.979
-0.864,-8.457,-5.614,1.516,-1.04,-1.566
-0.177,-9.422,-5.808,1.105,-0.664,-1.137
0.712,-9.786,-6.017,0.714,-0.086,-0.702
1.384,-9.834,-5.874,0.368,0.185,-0.291
1.417,-9.474,-5.818,0.088,0.32,0.031
0.953,-9.482,-5.621,-0.051,0.396,0.239
0.614,-9.551,-5.067,-0.077,0.322,0.283
0.004,-9.456,-4.642,-0.071,0.262,0.212
-0.106,-9.345,-4.012,-0.068,0.26,0.099
-0.048,-8.658,-3.451,-0.102,0.101,0.03
0.388,-7.99,-3.073,-0.165,-0.0,0.145
0.119,-7.673,-3.408,-0.219,-0.25,0.403
-0.707,-8.505,-4.651,-0.292,-0.33,0.62
-1.511,-10.114,-6.128,-0.395,-0.184,0.634
-1.929,-11.923,-7.165,-0.602,0.175,0.406
-2.039,-12.967,-7.622,-0.859,0.696,-0.023
-1.28,-13.549,-6.998,-1.15,1.344,-0.409
-0.117,-12.573,-5.833,-1.494,1.698,-0.509
0.825,-10.03,-4.594,-1.852,1.872,-0.153
1.64,-6.275,-3.912,-2.231,1.785,0.699
2.453,-0.655,-3.471,-2.628,1.479,1.934
2.882,5.306,-4.047,-2.632,0.66,2.707
2.516,7.846,-5.467,-2.277,-0.229,2.758
2.447,9.337,-6.96,-1.698,-0.497,2.137
2.478,10.553,-7.606,-0.741,-0.555,1.064
2.179,8.74,-8.343,0.387,-0.808,-0.385
0.736,6.26,-8.77,1.199,-0.922,-1.559
0.025,5.272,-8.189,1.761,-0.909,-2.223
-0.781,3.245,-7.001,2.108,-1.49,-2.445
-1.626,0.184,-6.26,2.091,-2.282,-2.431
-2.55,-3.947,-6.375,1.914,-2.658,-2.256
-2.147,-7.501,-6.463,1.657,-2.347,-1.889
-1.377,-9.962,-6.321,1.259,-1.847,-1.47
-0.864,-10.63,-6.291,0.845,-1.21,-1.054
-0.594,-11.09,-6.163,0.519,-0.371,-0.659
-0.079,-9.992,-5.429,0.254,0.239,-0.31
0.165,-9.448,-4.594,0.038,0.36,-0.097
0.015,-9.211,-3.887,-0.064,0.409,0.062
-0.24,-9.445,-3.506,-0.107,0.256,0.141
-0.566,-9.721,-3.65,-0.139,0.028,0.076
-1.073,-9.623,-3.845,-0.153,-0.139,-0.057
-1.281,-9.181,-3.901,-0.153,-0.071,-0.104
-1.138,-8.104,-3.686,-0.176,-0.007,0.005
-1.229,-7.16,-3.796,-0.241,0.04,0.322
-1.782,-7.463,-4.311,-0.357,0.097,0.774
-2.569,-8.944,-5.788,-0.553,0.243,1.053
-3.112,-10.993,-7.443,-0.811,0.552,0.924
-3.042,-13.205,-7.821,-1.097,1.161,0.469
-1.654,-14.889,-6.947,-1.485,1.935,0.025
-0.464,-14.048,-5.927,-1.946,2.397,-0.13
0.938,-10.635,-3.721,-2.547,2.911,0.397
3.35,-2.571,-1.358,-3.366,3.251,1.626
4.851,5.337,-1.521,-3.266,2.007,2.546
4.259,9.068,-2.927,-2.726,-0.059,2.565
3.2,11.706,-4.72,-1.983,-0.505,1.869
4.005,13.743,-5.796,-0.915,-0.52,0.779
3.411,10.745,-7.005,0.609,-1.638,-0.772
1.214,6.561,-7.484,1.248,-1.948,-1.957
-1.025,5.503,-7.685,1.589,-1.188,-2.358
-0.876,3.549,-6.813,1.887,-1.214,-2.26
-1.672,-0.605,-6.646,2.031,-1.993,-2.202
-2.972,-3.884,-6.322,2.014,-1.937,-1.911
-2.176,-6.566,-5.741,1.921,-1.163,-1.412
-0.18,-8.738,-5.382,1.683,-0.724,-0.91
0.787,-10.195,-5.44,1.286,-0.721,-0.462
0.424,-10.405,-5.517,0.868,-0.516,-0.034
0.332,-10.856,-5.593,0.429,-0.169,0.185
-0.47,-10.642,-5.61,0.135,0.037,0.249
-0.83,-10.402,-5.344,0.025,0.211,0.184
-1.382,-9.965,-4.677,0.04,0.301,0.011
-1.193,-9.477,-3.931,0.068,0.394,-0.184
-0.769,-9.01,-3.182,0.047,0.306,-0.252
-0.349,-8.285,-2.842,-0.054,0.126,-0.173
-0.288,-8.007,-3.051,-0.201,-0.008,0.102
-0.538,-8.814,-4.205,-0.373,-0.256,0.375
-1.333,-10.833,-6.153,-0.657,-0.217,0.411
-1.544,-12.574,-7.375,-0.931,0.448,0.177
-0.492,-14.172,-7.324,-1.26,1.162,-0.063
-0.118,-14.486,-6.481,-1.712,1.594,-0.085
0.479,-12.488,-4.722,-2.376,2.446,0.333
2.241,-6.567,-2.665,-3.175,2.985,1.368
3.713,2.954,-2.204,-3.389,2.491,2.393
3.859,7.499,-2.48,-3.029,0.871,2.81
3.008,10.035,-4.485,-2.424,0.232,2.254
4.09,12.185,-6.148,-1.377,-0.04,1.331
4.173,11.981,-7.24,0.151,-0.802,-0.086
3.177,7.446,-7.519,1.281,-1.465,-1.385
1.781,6.108,-7.843,1.851,-1.317,-2.174
1.509,4.783,-6.614,2.203,-1.619,-2.232
-0.308,1.828,-5.776,2.3,-2.369,-2.188
-1.921,-2.972,-5.439,2.174,-2.684,-2.01
-2.827,-6.677,-5.184,1.858,-2.31,-1.66
-2.096,-9.37,-5.287,1.527,-1.643,-1.218
-1.175,-10.348,-5.24,1.219,-1.19,-0.756
-0.339,-10.708,-5.575,0.816,-0.971,-0.381
-0.047,-9.896,-5.74,0.465,-0.582,-0.026
-0.295,-10.197,-5.682,0.255,-0.365,0.262
-1.603,-10.22,-5.116,0.095,-0.177,0.327
-2.164,-10.314,-4.822,-0.035,0.037,0.178
-2.449,-10.209,-4.104,-0.047,0.322,0.007
-2.22,-9.729,-3.208,-0.107,0.461,-0.094
-1.697,-8.535,-2.428,-0.279,0.492,-0.113
-1.171,-7.095,-2.442,-0.439,0.526,0.132
-1.277,-8.525,-3.961,-0.625,0.419,0.533
-2.221,-11.015,-6.652,-0.876,0.326,0.464
-2.656,-13.206,-7.866,-1.159,0.927,0.025
-1.376,-14.988,-7.581,-1.502,1.768,-0.317
-0.389,-15.751,-6.922,-1.972,2.212,-0.299
1.023,-11.869,-4.592,-2.603,2.784,0.355
4.194,-0.411,-0.833,-3.597,3.287,1.765
5.616,6.781,0.027,-3.331,1.649,2.764
4.293,9.506,-1.704,-2.865,-0.363,2.67
2.808,13.42,-3.655,-2.138,-0.617,1.905
2.97,14.929,-5.529,-0.983,-0.78,0.586
1.339,8.592,-7.649,0.723,-1.772,-1.155
-0.651,5.827,-8.626,1.209,-1.754,-2.361
-2.052,5.318,-8.5,1.518,-0.865,-2.517
-1.184,1.932,-7.642,1.752,-1.041,-2.334
-1.803,-1.37,-6.971,1.776,-1.879,-2.196
-2.659,-4.562,-6.476,1.72,-1.871,-1.914
-1.724,-7.372,-5.969,1.657,-1.094,-1.344
0.223,-8.74,-5.167,1.543,-0.878,-0.82
0.308,-9.44,-5.146,1.271,-1.029,-0.405
-0.098,-10.327,-5.386,0.975,-0.442,-0.082
0.394,-10.88,-5.489,0.684,-0.022,0.095
-0.021,-11.303,-5.3,0.412,0.178,0.073
-0.483,-11.204,-5.055,0.194,0.303,-0.14
-0.525,-10.766,-4.207,0.019,0.447,-0.402
-0.072,-9.926,-3.215,-0.171,0.34,-0.579
-0.081,-8.516,-2.592,-0.362,0.205,-0.532
0.514,-8.157,-2.64,-0.505,-0.004,-0.265
0.262,-9.618,-4.187,-0.549,-0.155,0.0
0.403,-11.977,-5.672,-0.582,0.162,0.067
1.44,-14.438,-5.984,-0.682,0.706,0.083
2.165,-16.268,-5.53,-1.036,0.974,0.202
1.73,-15.872,-4.462,-1.744,1.529,0.564
2.855,-10.936,-2.108,-2.941,2.688,1.643
4.347,-0.096,-1.284,-3.452,2.905,2.598
5.287,5.795,-1.441,-3.259,1.671,3.107
3.677,9.011,-2.796,-2.595,0.203,2.531
3.495,12.215,-4.575,-1.687,-0.004,1.514
3.347,12.711,-6.39,-0.195,-0.901,-0.098
1.746,6.941,-6.97,0.797,-1.927,-1.509
-1.555,5.0,-8.112,1.217,-1.877,-2.54
-1.728,4.629,-8.518,1.405,-0.648,-2.547
-1.165,1.511,-8.126,1.661,-0.951,-2.402
-1.527,-1.857,-7.785,1.727,-1.489,-2.152
-1.501,-5.088,-7.485,1.618,-1.352,-1.683
-0.545,-7.3,-6.583,1.517,-0.893,-1.121
0.725,-8.772,-5.645,1.309,-1.024,-0.679
0.528,-9.043,-5.319,1.016,-0.98,-0.293
0.503,-9.572,-5.359,0.777,-0.618,0.003
0.461,-9.989,-5.364,0.587,-0.37,0.209
-0.255,-10.366,-5.642,0.36,-0.236,0.3
-1.058,-10.892,-5.698,0.182,0.084,0.215
-1.066,-10.981,-5.266,0.019,0.275,0.031
-0.923,-10.653,-4.342,-0.194,0.344,-0.141
-0.815,-9.54,-3.392,-0.413,0.344,-0.217
-0.213,-8.731,-3.059,-0.598,0.263,-0.151
-0.051,-9.398,-4.215,-0.699,0.17,-0.007
0.166,-10.831,-5.846,-0.756,0.263,0.029
0.45,-12.426,-6.718,-0.877,0.618,0.022
0.89,-13.822,-6.942,-1.151,1.079,0.083
1.133,-13.904,-6.504,-1.606,1.615,0.367
1.59,-10.8,-4.777,-2.292,2.235,1.099
3.279,-2.084,-2.482,-3.409,3.051,2.438
4.346,4.13,-2.479,-3.28,2.068,3.132
4.3,7.266,-3.197,-2.782,0.514,2.865
3.47,10.46,-4.519,-1.974,-0.172,1.884
3.759,12.581,-5.245,-0.886,-0.493,0.589
2.41,8.729,-6.611,0.789,-1.993,-1.237
-0.041,6.254,-6.642,1.295,-2.249,-2.51
-1.744,4.659,-7.035,1.474,-1.647,-2.837
-1.544,2.07,-6.438,1.597,-1.708,-2.654
-2.017,-1.938,-6.657,1.606,-2.399,-2.447
-2.513,-5.607,-6.346,1.435,-2.383,-1.976
-2.146,-8.257,-6.746,1.241,-1.879,-1.329
-1.302,-8.92,-6.951,1.043,-1.414,-0.808
-1.33,-9.618,-7.058,0.818,-1.0,-0.39
-1.495,-9.908,-6.673,0.645,-0.565,-0.131
-1.992,-10.056,-6.553,0.49,0.007,-0.048
-1.927,-10.093,-5.964,0.313,0.355,-0.059
-2.071,-10.319,-5.088,0.223,0.553,-0.135
-1.547,-10.48,-4.339,0.043,0.531,-0.268
-1.406,-10.223,-3.8,-0.182,0.574,-0.335
-0.889,-9.41,-3.353,-0.376,0.358,-0.403
-0.777,-8.478,-3.066,-0.475,0.193,-0.405
-0.493,-7.82,-3.618,-0.477,0.094,-0.225
-0.594,-8.885,-5.353,-0.494,0.145,0.04
-0.536,-10.836,-7.231,-0.554,0.368,0.168
-0.09,-13.073,-7.871,-0.687,1.06,0.259
0.66,-14.734,-7.33,-1.039,1.671,0.472
1.079,-14.03,-5.924,-1.629,2.184,1.012
2.119,-9.375,-3.133,-2.554,2.691,2.026
3.131,1.761,-2.029,-2.815,2.562,2.755
3.694,5.923,-1.842,-2.554,1.221,2.92
2.67,9.532,-3.474,-2.019,-0.004,2.073
2.03,13.642,-4.696,-1.223,-0.508,0.668
1.326,13.464,-6.442,0.228,-1.392,-1.112
-0.341,6.114,-6.807,1.039,-2.246,-2.439
-2.704,3.949,-7.199,1.286,-1.996,-3.01
-2.732,2.154,-6.357,1.391,-1.415,-2.588
-2.175,-3.802,-6.298,1.339,-1.937,-2.036
-3.105,-7.067,-7.369,1.172,-1.941,-1.527
-2.665,-9.339,-8.071,0.945,-1.259,-1.075
-1.247,-9.724,-8.143,0.726,-0.763,-0.727
-0.927,-9.953,-8.41,0.502,-0.648,-0.478
-1.327,-8.886,-7.892,0.37,-0.056,-0.234
-1.012,-8.733,-6.146,0.165,0.167,-0.139
-1.26,-8.753,-5.089,0.075,0.186,-0.092
-1.403,-9.2,-5.586,0.03,0.268,-0.06
-1.391,-9.81,-7.562,0.061,0.69,-0.152
-0.536,-11.556,-7.752,0.029,1.368,-0.167
0.162,-12.92,-7.132,-0.241,1.756,0.01
0.17,-13.465,-5.831,-0.773,2.193,0.237
0.297,-12.784,-4.417,-1.447,2.578,0.593
0.852,-11.761,-1.692,-2.327,2.691,1.257
1.317,-6.517,-1.491,-3.2,2.521,2.122
2.612,1.604,-2.004,-3.381,1.967,2.674
3.019,4.51,-3.275,-2.913,0.415,2.502
2.652,7.333,-4.461,-2.209,-0.302,1.575
3.143,10.92,-5.382,-1.014,-0.813,0.449
2.025,10.358,-5.984,0.464,-1.977,-1.041
0.058,6.053,-6.829,1.382,-2.452,-2.306
-0.682,4.118,-7.373,1.782,-2.092,-2.737
-0.827,1.111,-6.779,2.074,-2.485,-2.507
-3.026,-3.754,-6.575,1.952,-2.916,-2.355
-2.755,-8.037,-7.167,1.487,-2.525,-2.096
-2.882,-11.212,-7.37,0.932,-1.831,-1.8
-2.133,-10.86,-6.892,0.41,-1.041,-1.497
-1.522,-9.902,-6.494,-0.038,-0.31,-1.2
-0.115,-8.812,-5.845,-0.29,0.158,-0.773
-0.398,-7.426,-4.417,-0.322,0.282,-0.319
-0.503,-6.903,-3.507,-0.167,0.129,0.057
-1.039,-7.607,-3.429,0.031,-0.056,0.255
-2.048,-8.507,-4.012,0.151,-0.126,0.347
-2.503,-9.418,-4.554,0.045,0.104,0.332
-2.487,-10.569,-5.657,-0.209,0.365,0.205
-1.829,-11.306,-6.893,-0.498,0.878,0.023
-0.457,-12.61,-6.861,-0.758,1.51,-0.097
1.198,-13.91,-6.18,-1.106,1.964,-0.04
1.896,-14.979,-5.457,-1.5,2.192,0.166
2.219,-13.056,-4.253,-2.07,2.483,0.813
3.482,-6.925,-2.296,-3.094,2.873,2.161
4.19,1.065,-1.592,-3.029,1.457,2.696
1.924,3.569,-3.197,-2.746,0.075,2.286
1.787,8.758,-4.552,-2.035,0.105,1.484
2.452,12.025,-5.539,-0.858,-0.3,0.306
1.32,9.479,-7.097,0.823,-1.745,-1.615
-1.079,4.932,-8.334,1.365,-1.664,-2.673
-0.396,4.383,-7.223,1.741,-1.299,-2.757
-1.188,0.738,-6.938,1.874,-2.044,-2.458
-2.245,-3.648,-6.686,1.891,-2.36,-2.1
-2.472,-6.941,-6.119,1.801,-2.047,-1.54
-2.021,-9.338,-5.25,1.591,-1.284,-0.946
-0.969,-10.226,-5.678,1.258,-0.611,-0.468
-0.359,-10.933,-5.324,0.871,-0.342,-0.108
-0.81,-11.072,-5.508,0.406,-0.052,0.154
-1.144,-10.839,-5.676,0.016,0.467,0.269
-1.059,-10.43,-5.608,-0.211,0.566,0.222
-1.171,-9.901,-4.592,-0.233,0.51,0.14
-0.949,-9.311,-3.728,-0.242,0.44,0.075
-0.675,-8.662,-3.192,-0.324,0.255,0.041
-0.801,-8.668,-3.662,-0.408,0.117,0.073
-0.757,-9.641,-5.13,-0.463,0.285,0.075
-0.441,-11.352,-6.399,-0.573,0.533,-0.022
-0.099,-12.937,-7.101,-0.783,0.972,-0.12
0.813,-14.555,-6.899,-1.135,1.518,-0.01
1.544,-13.926,-5.927,-1.712,1.971,0.486
2.488,-9.893,-3.886,-2.605,2.498,1.638
4.617,2.001,-1.934,-3.193,2.457,2.771
3.68,6.6,-2.439,-2.885,1.025,3.281
2.837,9.706,-3.748,-2.389,0.934,2.643
4.012,13.028,-4.628,-1.453,0.609,1.532
3.969,13.528,-5.802,-0.134,-0.543,-0.237
1.429,6.289,-7.452,0.952,-1.385,-1.865
1.303,5.286,-7.653,1.285,-0.899,-2.899
1.121,4.692,-7.27,1.54,-1.52,-2.863
-0.671,1.469,-7.514,1.516,-2.086,-2.637
-1.713,-2.296,-7.955,1.461,-2.006,-2.275
-2.047,-5.041,-7.935,1.463,-1.675,-1.809
-1.375,-7.567,-7.514,1.369,-1.385,-1.353
-1.097,-8.721,-7.131,1.247,-1.093,-0.94
-0.356,-8.821,-6.985,1.072,-0.719,-0.565
-0.055,-8.286,-6.605,0.847,-0.389,-0.186
-0.319,-8.848,-6.205,0.601,-0.126,0.031
-0.725,-8.972,-5.75,0.417,0.166,0.236
-1.151,-9.541,-5.434,0.243,0.131,0.256
-1.658,-9.998,-4.712,0.088,0.224,0.154
-1.644,-9.999,-4.048,-0.097,0.336,0.042
-0.985,-9.151,-3.649,-0.343,0.384,0.019
-0.451,-8.749,-3.948,-0.56,0.339,0.117
-0.027,-9.531,-5.471,-0.715,0.357,0.275
-0.038,-11.295,-7.644,-0.809,0.63,0.231
0.597,-13.816,-8.212,-0.825,1.278,0.125
1.273,-15.412,-7.612,-1.064,1.608,0.303
1.116,-13.702,-6.345,-1.626,1.973,0.973
2.466,-5.415,-3.231,-2.805,2.753,2.24
3.189,2.754,-1.863,-2.808,2.392,2.957
3.66,5.848,-2.025,-2.659,1.011,2.81
2.376,10.257,-3.944,-2.109,0.082,1.859
2.32,12.859,-5.489,-1.116,-0.301,0.446
1.189,8.565,-7.459,0.614,-1.369,-1.553
-0.097,3.997,-7.254,1.126,-2.097,-2.791
-2.612,4.392,-7.262,1.372,-1.991,-3.009
-2.895,0.89,-7.348,1.458,-1.58,-2.693
-3.044,-3.417,-7.509,1.546,-1.587,-2.431
-2.658,-6.371,-7.567,1.439,-1.736,-2.041
-2.363,-8.174,-7.24,1.295,-1.218,-1.504
-0.515,-9.232,-7.007,1.08,-0.694,-0.935
0.18,-8.92,-6.138,0.823,-0.688,-0.366
-0.063,-8.707,-6.028,0.462,-0.662,0.125
-1.271,-8.95,-5.752,0.263,-0.009,0.469
-1.292,-9.342,-5.654,0.127,0.332,0.593
-2.187,-9.668,-5.378,0.09,0.454,0.494
-2.073,-9.928,-4.99,0.06,0.634,0.295
-1.856,-9.885,-4.169,-0.014,0.659,0.147
-1.489,-8.98,-3.798,-0.199,0.467,0.062
-1.362,-8.209,-3.875,-0.352,0.401,0.131
-0.906,-9.064,-4.664,-0.519,0.336,0.256
-1.198,-10.995,-6.342,-0.728,0.409,0.164
-0.583,-13.229,-7.169,-0.908,1.133,-0.091
1.012,-15.371,-6.53,-1.187,1.768,-0.088
2.056,-14.917,-5.753,-1.804,2.177,0.494
3.238,-8.673,-3.165,-3.062,2.943,1.806
4.92,0.864,-2.19,-3.126,2.595,2.575
4.853,4.995,-1.933,-2.825,0.634,2.817
2.384,9.432,-3.631,-2.311,-0.22,2.1
2.147,13.148,-4.549,-1.335,-0.508,0.86
1.181,10.741,-6.721,0.468,-2.025,-1.156
-1.969,5.297,-6.628,1.11,-2.644,-2.507
-3.668,4.259,-7.057,1.358,-1.521,-2.96
-2.905,1.181,-6.863,1.503,-1.377,-2.709
-3.764,-3.139,-7.444,1.479,-1.718,-2.524
-3.866,-5.866,-8.115,1.296,-0.964,-2.152
-1.571,-8.265,-8.369,1.156,-0.125,-1.617
0.113,-9.249,-7.738,0.998,0.026,-1.209
0.74,-8.605,-6.987,0.783,0.047,-0.785
1.266,-8.04,-5.912,0.57,0.262,-0.328
1.228,-7.648,-4.811,0.375,0.051,0.004
0.17,-7.684,-4.399,0.24,-0.013,0.302
-0.7,-8.263,-4.675,0.164,-0.113,0.445
-1.375,-9.164,-5.266,0.091,-0.037,0.457
-1.709,-10.029,-5.549,-0.007,0.073,0.329
-1.629,-10.282,-5.365,-0.125,0.481,0.241
-0.966,-10.106,-4.951,-0.303,0.687,0.179
-0.241,-10.066,-4.629,-0.53,0.922,0.172
0.823,-10.621,-4.666,-0.736,1.082,0.206
1.585,-11.701,-5.195,-0.925,1.185,0.254
1.996,-13.173,-5.513,-1.164,1.228,0.275
2.159,-13.585,-5.173,-1.534,1.382,0.447
2.049,-11.819,-4.727,-2.074,1.705,0.998
2.608,-5.789,-3.028,-3.031,2.174,2.059
3.167,2.404,-3.018,-2.964,1.773,2.548
3.677,5.523,-3.345,-2.603,0.562,2.232
2.835,9.668,-5.201,-1.908,-0.144,1.284
3.319,12.849,-5.995,-0.837,-0.278,0.13
3.228,10.743,-7.748,0.805,-1.166,-1.432
1.717,5.893,-7.465,1.418,-1.975,-2.48
-1.166,4.902,-8.18,1.665,-1.632,-2.601
-1.418,1.614,-7.065,1.773,-1.422,-2.245
-2.148,-2.585,-7.231,1.672,-2.212,-2.091
-3.628,-5.663,-7.094,1.486,-2.23,-1.963
-2.873,-7.538,-7.221,1.298,-1.316,-1.611
-0.612,-8.514,-6.421,1.163,-0.687,-1.272
0.543,-8.625,-6.596,0.866,-0.521,-0.88
0.371,-9.109,-6.323,0.558,-0.142,-0.42
0.313,-9.239,-6.35,0.209,0.12,0.021
-0.51,-9.59,-6.241,-0.045,0.195,0.256
-1.105,-9.369,-5.946,-0.18,0.237,0.32
-1.677,-9.405,-5.289,-0.185,0.416,0.284
-1.477,-8.919,-4.845,-0.127,0.502,0.157
-0.992,-8.266,-4.478,-0.046,0.573,0.052
-0.373,-8.058,-4.464,-0.023,0.635,0.104
-0.042,-8.624,-5.121,-0.112,0.6,0.225
0.319,-10.336,-6.224,-0.314,0.671,0.314
0.972,-12.49,-6.917,-0.616,1.001,0.261
1.621,-14.743,-6.475,-1.033,1.299,0.101
1.739,-16.201,-5.106,-1.598,1.486,0.164
2.088,-14.258,-3.343,-2.296,1.671,0.823
3.941,-0.716,-1.073,-3.657,2.055,2.118
4.073,6.71,-0.505,-3.507,1.104,2.692
3.116,9.229,-2.243,-3.025,0.296,2.104
3.623,14.861,-3.81,-2.288,0.386,1.443
4.541,17.32,-5.206,-1.098,0.079,0.215
2.593,8.32,-7.371,0.875,-1.023,-1.611
1.166,5.096,-8.39,1.429,-0.838,-2.505
1.149,5.712,-7.744,1.73,-0.758,-2.049
-0.249,1.829,-7.882,1.86,-1.74,-1.783
-2.684,-2.738,-8.78,1.751,-2.129,-1.61
-2.905,-5.57,-8.638,1.667,-1.65,-1.335
-1.928,-8.159,-8.043,1.513,-1.349,-1.108
-1.436,-9.036,-7.352,1.304,-0.982,-0.96
-0.586,-8.866,-6.765,1.086,-0.286,-0.744
0.716,-7.617,-5.502,0.878,0.115,-0.399
0.476,-7.766,-4.876,0.618,0.009,-0.14
-0.072,-7.995,-4.473,0.421,0.109,0.176
-0.651,-8.873,-4.711,0.256,-0.027,0.417
-1.509,-9.795,-4.956,0.129,-0.102,0.468
-2.12,-10.469,-4.974,-0.019,0.12,0.392
-1.821,-10.552,-4.767,-0.198,0.391,0.283
-1.541,-10.6,-4.615,-0.416,0.478,0.081
-1.002,-10.542,-4.539,-0.623,0.79,-0.115
0.161,-10.789,-4.62,-0.818,1.028,-0.214
1.16,-11.38,-4.953,-1.013,1.011,-0.239
1.683,-12.501,-5.07,-1.26,1.001,-0.216
1.831,-12.228,-5.21,-1.583,1.131,0.03
2.362,-10.303,-5.008,-2.072,1.442,0.741
2.996,-5.001,-3.732,-2.892,1.84,1.866
3.429,3.463,-3.852,-2.994,1.535,2.578
3.882,6.737,-4.059,-2.594,0.649,2.547
3.456,10.264,-4.993,-1.924,-0.102,1.75
3.024,13.97,-5.232,-0.927,-0.743,0.44
1.494,12.245,-6.568,0.588,-1.828,-1.219
-0.567,6.48,-6.411,1.346,-2.393,-2.471
-2.851,4.578,-7.245,1.58,-2.037,-2.845
-3.032,0.721,-7.045,1.669,-1.629,-2.578
-3.106,-4.826,-7.771,1.629,-1.761,-2.238
-2.637,-7.739,-7.881,1.364,-1.513,-1.892
-1.657,-9.396,-8.137,1.116,-0.913,-1.457
-0.186,-8.936,-7.585,0.91,-0.557,-1.07
-0.066,-7.746,-7.096,0.714,-0.477,-0.662
-0.653,-7.144,-6.307,0.534,-0.214,-0.251
-1.282,-7.605,-5.764,0.415,0.063,0.044
-1.632,-8.431,-5.179,0.304,0.233,0.218
-2.04,-9.456,-4.58,0.212,0.287,0.223
-2.092,-10.013,-4.239,0.066,0.266,0.079
-1.954,-9.712,-3.939,-0.085,0.358,-0.06
-1.41,-8.678,-3.67,-0.224,0.373,-0.11
-0.831,-8.403,-4.019,-0.334,0.35,-0.062
-0.469,-9.982,-5.355,-0.439,0.389,-0.033
0.062,-12.357,-6.201,-0.592,0.962,-0.134
1.559,-14.433,-6.249,-0.789,1.39,-0.185
1.384,-15.394,-6.203,-1.13,1.439,-0.025
1.218,-14.199,-4.973,-1.718,1.858,0.441
1.726,-8.398,-3.118,-2.616,2.254,1.43
3.053,2.274,-2.153,-3.04,2.115,2.48
3.519,7.062,-2.815,-2.784,0.86,2.879
2.975,9.345,-4.188,-2.231,-0.006,2.186
3.07,12.396,-5.725,-1.345,-0.209,1.146
3.421,12.052,-6.486,0.049,-0.913,-0.357
1.187,6.274,-7.114,1.013,-2.06,-1.848
-1.849,5.031,-6.817,1.323,-1.695,-2.647
-1.723,3.73,-6.321,1.435,-1.196,-2.435
-2.261,-0.444,-6.376,1.485,-1.771,-2.189
-3.573,-4.324,-7.347,1.427,-1.816,-1.83
-2.9,-7.329,-7.833,1.39,-1.249,-1.297
-1.64,-9.586,-8.276,1.294,-0.867,-0.836
-0.986,-10.038,-7.695,1.132,-0.61,-0.48
-0.667,-9.345,-6.82,0.888,-0.274,-0.124
-0.319,-8.5,-5.708,0.598,-0.038,0.141
-0.52,-8.133,-4.946,0.389,0.024,0.297
-1.203,-8.462,-4.516,0.291,0.0,0.445
-2.116,-9.279,-4.56,0.266,-0.015,0.39
-2.443,-10.009,-4.625,0.212,0.034,0.182
-2.68,-10.233,-4.369,0.118,0.185,-0.04
-2.477,-9.703,-3.759,-0.032,0.456,-0.168
-1.684,-8.482,-2.737,-0.224,0.48,-0.236
-1.125,-8.1,-2.546,-0.407,0.289,-0.077
-1.13,-9.625,-3.782,-0.578,0.092,0.061
-1.376,-11.882,-5.92,-0.812,0.301,-0.01
-0.791,-14.291,-6.956,-1.048,0.84,-0.204
-0.181,-16.465,-6.706,-1.392,1.371,-0.224
0.032,-15.599,-5.585,-2.082,2.225,0.147
1.113,-9.473,-2.746,-3.372,3.606,1.294
3.955,0.633,-1.61,-3.515,3.624,1.992
5.35,4.897,-0.753,-3.124,1.414,2.151
2.917,9.666,-3.018,-2.411,0.214,1.296
3.74,13.815,-4.55,-1.178,0.186,0.416
4.212,12.141,-6.692,0.872,-1.441,-1.168
1.669,6.121,-6.373,1.798,-2.838,-2.162
-2.012,3.935,-7.535,2.06,-2.108,-2.42
-0.728,1.683,-6.484,2.161,-1.719,-1.794
-1.881,-3.187,-6.108,2.105,-2.775,-1.533
-3.178,-6.032,-5.477,1.837,-2.858,-1.082
-3.479,-8.578,-5.897,1.539,-2.171,-0.493
-2.509,-9.312,-6.199,1.276,-1.212,-0.013
-2.739,-11.034,-6.082,1.036,-0.757,0.193
-3.175,-11.519,-6.001,0.817,-0.086,0.219
-3.387,-11.809,-5.802,0.642,0.529,0.057
-2.823,-11.464,-4.342,0.479,1.001,-0.221
-1.96,-10.74,-2.377,0.329,0.92,-0.471
-0.952,-9.723,-1.433,0.054,0.714,-0.497
-0.568,-8.587,-1.135,-0.249,0.295,-0.392
-0.76,-7.67,-1.675,-0.522,-0.01,-0.188
-1.237,-8.134,-3.244,-0.653,-0.248,0.129
-2.039,-10.077,-5.463,-0.724,-0.305,0.296
-3.059,-12.109,-7.047,-0.841,0.074,0.081
-2.497,-14.115,-7.065,-1.021,0.908,-0.313
-1.098,-15.906,-5.749,-1.369,1.548,-0.578
-0.032,-14.79,-3.913,-1.977,2.135,-0.341
2.119,-9.844,-1.15,-3.044,2.707,0.785
4.351,3.025,0.104,-3.37,2.252,1.815
4.939,8.057,-0.532,-3.042,0.52,2.51
3.169,11.564,-3.202,-2.436,-0.277,2.097
3.087,15.608,-4.637,-1.496,-0.11,1.265
2.986,15.677,-6.458,0.12,-0.851,-0.266
1.184,7.172,-7.64,1.058,-1.61,-1.512
-1.403,5.414,-8.422,1.433,-1.256,-2.318
-1.464,4.432,-7.427,1.712,-0.855,-2.045
-1.808,-0.189,-7.123,1.895,-1.889,-1.895
-3.772,-2.796,-6.742,1.843,-2.187,-1.765
-3.422,-5.77,-6.221,1.848,-1.65,-1.426
-1.695,-8.11,-5.487,1.726,-1.034,-1.021
-0.352,-9.83,-5.354,1.476,-1.055,-0.722
-0.345,-10.177,-5.494,1.159,-0.614,-0.408
-0.189,-11.285,-5.575,0.874,-0.052,-0.099
-0.874,-11.445,-5.412,0.549,0.27,0.014
-0.934,-11.179,-4.873,0.267,0.441,0.004
-1.124,-10.732,-3.998,0.045,0.45,-0.064
-1.072,-10.172,-2.963,-0.171,0.441,-0.112
-0.748,-9.313,-2.277,-0.413,0.224,-0.161
-0.472,-8.255,-2.346,-0.619,0.084,-0.041
-0.792,-8.686,-3.417,-0.698,0.012,0.254
-1.708,-10.38,-5.496,-0.748,-0.036,0.351
-2.542,-12.324,-7.268,-0.828,0.355,0.072
-1.748,-14.528,-7.234,-0.951,1.201,-0.271
-0.714,-15.784,-6.259,-1.307,1.811,-0.357
0.023,-14.083,-3.993,-2.044,2.404,-0.007
1.885,-7.31,-1.266,-3.321,3.287,1.095
3.617,2.125,-1.514,-3.449,3.174,1.968
5.787,6.59,-2.118,-3.075,1.576,2.318
4.312,9.763,-3.965,-2.239,0.109,1.588
4.055,13.515,-5.836,-1.066,0.221,0.573
4.737,11.884,-7.05,0.852,-0.455,-0.908
4.722,6.5,-5.881,1.611,-1.678,-1.914
0.739,5.098,-6.451,1.774,-2.184,-2.378
0.117,3.458,-6.458,1.493,-1.643,-1.941
-0.565,-0.667,-7.459,1.327,-2.478,-1.671
-2.291,-4.286,-8.158,1.073,-2.794,-1.383
-3.519,-6.666,-8.739,0.95,-2.216,-1.096
-2.304,-7.673,-7.996,1.064,-0.819,-0.783
-0.053,-7.905,-6.848,1.383,-0.388,-0.526
0.801,-8.233,-5.111,1.55,-0.427,-0.348
0.732,-8.365,-4.392,1.567,-0.504,-0.222
0.238,-9.131,-4.142,1.395,-0.266,0.01
-0.568,-10.451,-4.789,1.022,-0.397,0.131
-2.109,-11.543,-5.105,0.589,-0.283,0.048
-2.53,-11.779,-5.099,0.156,0.055,-0.102
-2.6,-11.033,-4.527,-0.215,0.373,-0.276
-1.627,-10.172,-3.08,-0.48,0.616,-0.365
-0.371,-9.326,-2.606,-0.645,0.572,-0.335
0.423,-10.342,-3.472,-0.762,0.641,-0.205
1.546,-12.508,-4.461,-0.933,1.024,-0.107
2.745,-14.381,-4.816,-1.202,1.32,0.069
2.808,-15.164,-5.385,-1.704,1.548,0.421
2.784,-13.81,-4.336,-2.514,2.512,1.189
5.344,-4.548,-1.587,-4.028,3.343,2.482
5.438,3.664,-1.167,-3.905,2.195,3.165
4.021,5.226,-2.135,-3.369,0.69,2.445
3.488,10.553,-3.014,-2.474,0.494,1.48
4.354,13.667,-4.176,-1.005,-0.489,0.144
1.687,8.713,-6.224,1.204,-2.256,-1.739
-0.281,4.459,-6.721,1.832,-2.477,-2.88
-0.956,4.965,-6.29,2.073,-1.978,-2.589
-1.153,0.106,-6.1,2.18,-2.783,-2.301
-3.289,-4.12,-6.143,2.059,-3.267,-2.035
-3.194,-8.029,-6.596,1.749,-2.636,-1.624
-2.596,-10.677,-6.432,1.371,-1.72,-1.213
-1.096,-11.342,-5.946,0.961,-1.016,-0.897
-1.221,-10.594,-5.395,0.587,-0.534,-0.641
-0.593,-10.126,-4.795,0.223,0.145,-0.405
-0.868,-8.947,-3.738,0.089,0.227,-0.259
-0.985,-8.698,-2.985,0.061,0.049,-0.105
-2.127,-9.445,-3.32,0.04,-0.131,-0.005
-2.445,-10.614,-4.356,-0.103,0.029,0.016
-2.638,-12.091,-5.282,-0.29,0.497,-0.013
-1.735,-13.356,-4.683,-0.545,1.296,-0.059
0.464,-14.219,-3.912,-0.959,2.051,-0.105
2.132,-14.653,-3.248,-1.397,2.289,-0.006
3.533,-14.657,-2.129,-1.898,2.666,0.523
4.646,-12.026,-1.201,-2.69,2.584,1.525
6.494,0.819,-0.348,-4.122,2.413,2.976
3.525,6.225,-2.976,-3.719,0.941,3.578
3.537,9.496,-4.196,-3.134,1.325,2.712
4.079,14.684,-4.837,-1.994,0.383,1.397
3.804,16.92,-5.053,-0.499,-0.958,-0.322
0.446,7.967,-7.092,1.591,-2.529,-2.488
0.266,4.743,-5.748,1.923,-2.044,-3.555
-1.247,2.637,-5.308,2.078,-2.903,-3.178
-3.226,-1.97,-5.715,1.85,-2.599,-2.617
-3.829,-6.602,-6.939,1.561,-1.803,-2.024
-3.086,-9.695,-7.189,1.329,-0.753,-1.315
-1.614,-10.451,-6.895,1.013,-0.473,-0.878
-1.387,-10.001,-6.316,0.699,-0.066,-0.498
-0.374,-9.286,-5.431,0.381,0.189,-0.142
-0.622,-7.873,-4.356,0.143,0.091,0.135
-1.074,-7.672,-3.828,-0.057,0.017,0.353
-1.759,-8.25,-4.037,-0.145,-0.101,0.518
-2.441,-9.263,-4.936,-0.202,-0.229,0.52
-3.173,-10.218,-5.886,-0.286,0.013,0.381
-2.852,-11.442,-6.154,-0.429,0.604,0.216
-2.034,-11.707,-5.691,-0.639,0.977,0.026
-1.302,-11.45,-5.396,-0.883,1.367,-0.143
-0.132,-11.303,-4.998,-1.043,1.758,-0.139
1.209,-12.327,-4.651,-1.212,2.02,0.006
2.158,-12.409,-4.415,-1.51,1.977,0.42
2.92,-10.341,-4.495,-2.059,1.705,1.338
4.054,-2.47,-3.23,-3.044,1.691,2.74
4.017,2.733,-3.261,-2.711,0.817,3.283
2.835,4.88,-3.907,-2.4,-0.269,2.552
1.472,9.793,-4.642,-1.822,-0.736,1.434
1.019,12.649,-5.335,-0.758,-0.945,-0.029
-0.312,7.679,-7.051,0.874,-2.002,-2.016
-2.158,4.518,-6.813,1.1,-2.547,-3.182
-4.302,3.784,-6.447,1.361,-2.182,-3.021
-4.593,-0.711,-6.245,1.505,-2.034,-2.658
-5.587,-5.144,-6.191,1.414,-1.926,-2.465
-5.416,-7.345,-5.825,1.229,-1.218,-2.098
-3.724,-8.663,-5.911,1.016,-0.216,-1.677
-1.116,-8.366,-5.42,0.804,0.057,-1.245
-0.243,-7.829,-5.133,0.576,0.072,-0.806
-0.158,-8.161,-5.288,0.376,0.08,-0.337
-0.782,-9.287,-5.483,0.235,0.296,0.019
-1.585,-10.111,-5.339,0.199,0.35,0.158
-1.917,-10.568,-4.756,0.183,0.526,0.122
-1.665,-10.619,-4.07,0.112,0.64,0.059
-1.11,-10.082,-3.188,-0.011,0.717,0.02
-0.552,-9.596,-2.874,-0.225,0.685,0.029
0.282,-10.12,-3.519,-0.522,0.783,0.122
1.166,-11.516,-4.329,-0.868,1.008,0.202
1.973,-13.415,-4.728,-1.253,1.248,0.258
2.288,-15.151,-4.818,-1.724,1.48,0.333
2.524,-14.628,-4.492,-2.279,1.921,0.682
3.232,-10.697,-2.826,-3.107,2.515,1.664
4.77,1.54,-1.81,-3.314,2.219,2.471
4.489,5.994,-2.137,-2.971,0.749,2.837
3.428,9.618,-3.593,-2.348,-0.077,2.214
3.503,13.291,-4.509,-1.461,-0.311,1.211
3.738,14.158,-5.933,-0.066,-1.362,-0.261
1.031,5.942,-6.898,0.769,-2.46,-1.597
-2.136,5.471,-7.504,1.094,-1.94,-2.524
-2.777,4.189,-7.449,1.329,-1.423,-2.446
-3.62,1.08,-7.473,1.483,-1.785,-2.294
-5.191,-2.751,-7.86,1.47,-1.683,-2.227
-4.872,-5.085,-7.703,1.446,-0.616,-1.946
-2.05,-7.249,-7.236,1.366,-0.083,-1.599
-0.301,-8.142,-6.337,1.129,-0.002,-1.26
0.603,-8.629,-6.097,0.809,0.056,-0.9
1.589,-8.135,-5.432,0.534,0.275,-0.464
1.574,-8.226,-5.413,0.32,-0.023,-0.141
0.844,-8.823,-4.912,0.206,0.002,0.187
-0.076,-9.259,-4.917,0.128,-0.235,0.31
-0.646,-10.088,-5.118,0.027,-0.158,0.328
-1.001,-11.166,-5.465,-0.124,0.001,0.227
-0.371,-12.294,-5.236,-0.327,0.464,0.104
0.736,-13.049,-4.871,-0.632,0.871,-0.004
1.52,-13.786,-4.793,-0.963,1.234,0.057
1.763,-14.516,-4.339,-1.306,1.325,0.265
1.689,-13.54,-3.422,-1.856,1.591,0.865
1.941,-8.867,-2.495,-2.83,2.015,2.084
2.008,1.479,-3.109,-2.855,1.921,2.661
2.017,3.796,-3.61,-2.493,1.694,2.632
3.498,8.196,-4.215,-1.82,1.006,1.917
3.595,12.305,-5.202,-0.723,0.173,0.599
3.338,12.317,-6.365,0.899,-1.216,-1.195
1.345,5.422,-6.726,1.672,-2.204,-2.405
-0.019,5.141,-6.833,2.065,-2.512,-2.903
-2.108,1.904,-6.686,2.189,-2.197,-2.702
-2.557,-2.463,-6.858,2.095,-1.942,-2.154
-2.921,-6.759,-7.566,1.824,-1.329,-1.695
-1.728,-9.427,-7.603,1.5,-0.637,-1.223
-0.586,-10.213,-7.176,1.152,-0.149,-0.873
0.245,-9.761,-6.468,0.795,0.222,-0.57
0.92,-8.974,-5.689,0.47,0.248,-0.31
0.64,-7.612,-4.671,0.303,0.169,-0.058
0.345,-7.147,-4.242,0.211,0.08,0.158
-0.182,-7.848,-4.097,0.242,-0.076,0.322
-0.841,-9.043,-4.239,0.272,-0.254,0.343
-1.333,-10.37,-4.135,0.221,-0.114,0.22
-1.202,-10.996,-3.983,0.07,0.042,0.051
-1.018,-10.767,-3.26,-0.119,0.215,-0.051
-0.565,-9.82,-2.658,-0.378,0.217,-0.086
-0.085,-9.909,-2.779,-0.637,0.205,0.007
0.065,-11.004,-4.222,-0.882,0.215,0.037
0.508,-13.132,-5.388,-1.051,0.564,-0.108
1.413,-15.362,-5.122,-1.272,0.9,-0.185
1.712,-15.599,-4.802,-1.756,1.337,0.131
2.555,-12.0,-3.343,-2.76,2.06,1.077
4.707,0.794,-1.877,-3.005,1.839,1.763
3.853,6.41,-1.386,-2.602,0.303,2.113
1.89,11.911,-3.491,-2.037,-0.328,1.508
1.776,16.186,-4.507,-0.999,-0.527,0.627
0.917,15.709,-6.513,0.645,-1.559,-0.918
-2.269,6.158,-7.459,1.57,-2.04,-2.052
-2.772,3.562,-7.732,1.7,-0.962,-2.438
-1.761,-0.206,-6.777,1.755,-0.88,-1.826
-2.182,-4.152,-7.023,1.642,-1.42,-1.3
-2.518,-6.415,-6.274,1.494,-1.289,-0.62
-1.719,-8.105,-5.792,1.317,-0.638,0.072
-0.955,-9.558,-5.242,1.142,-0.626,0.472
-1.45,-9.928,-5.381,0.966,-0.644,0.625
-1.977,-10.928,-5.112,0.804,-0.177,0.67
-2.304,-11.313,-5.144,0.583,0.07,0.431
-2.481,-11.344,-4.315,0.329,0.141,0.111
-2.594,-10.534,-3.626,0.113,0.284,-0.102
-2.576,-9.499,-2.758,-0.118,0.492,-0.194
-2.211,-8.969,-2.848,-0.328,0.297,-0.238
-1.946,-9.566,-3.455,-0.409,0.233,-0.171
-1.74,-11.103,-4.74,-0.513,0.249,-0.219
-1.4,-13.013,-5.55,-0.725,0.454,-0.501
-0.653,-14.963,-5.599,-1.065,0.919,-0.789
-0.122,-15.47,-4.889,-1.555,1.482,-0.839
0.441,-13.47,-3.743,-2.293,2.04,-0.388
1.71,-7.613,-1.826,-3.359,2.57,0.825
3.384,2.594,-1.223,-3.458,1.833,1.822
2.798,6.717,-2.52,-3.003,0.051,2.241
2.194,10.169,-4.337,-2.361,-0.421,1.742
2.934,13.827,-5.572,-1.377,-0.673,0.74
2.355,12.723,-6.939,0.247,-1.717,-0.797
-0.051,6.61,-7.718,0.973,-2.006,-1.924
-1.508,5.413,-7.613,1.224,-1.114,-2.343
-1.973,3.513,-7.086,1.448,-1.196,-2.081
-3.536,-0.391,-7.088,1.587,-1.666,-1.758
-4.406,-3.589,-7.293,1.541,-1.412,-1.412
-4.263,-6.469,-6.913,1.555,-0.666,-0.992
-2.145,-8.145,-6.3,1.527,-0.212,-0.734
-0.891,-9.244,-5.186,1.428,-0.127,-0.488
0.009,-10.048,-4.175,1.221,0.034,-0.221
0.37,-10.211,-3.777,0.982,0.118,0.077
-0.048,-10.647,-3.948,0.704,-0.049,0.238
-1.32,-11.14,-3.924,0.412,-0.092,0.238
-2.061,-11.281,-4.148,0.109,0.031,0.093
-2.248,-11.353,-4.274,-0.189,0.215,-0.142
-1.815,-11.226,-4.157,-0.528,0.364,-0.479
-0.409,-11.43,-3.889,-0.845,0.528,-0.7
0.948,-11.755,-3.799,-1.102,0.546,-0.708
1.5,-12.532,-4.237,-1.415,0.558,-0.542
1.031,-13.313,-4.921,-1.663,0.709,-0.361
0.381,-13.198,-4.92,-1.876,1.193,0.01
0.555,-10.342,-4.578,-2.26,1.888,0.89
2.15,-2.598,-2.983,-3.234,2.564,2.082
3.946,4.17,-3.12,-3.02,1.604,2.592
3.424,6.758,-3.914,-2.563,0.126,2.312
3.579,10.426,-4.811,-1.997,0.247,1.745
4.409,12.794,-5.622,-0.978,-0.344,0.555
2.732,9.212,-7.533,0.756,-1.752,-1.165
-0.513,5.776,-7.821,1.346,-1.539,-2.194
-0.112,5.298,-7.044,1.546,-0.453,-2.247
-0.311,2.335,-6.684,1.643,-1.42,-2.132
-1.924,-1.792,-6.286,1.529,-1.898,-1.842
-2.628,-4.65,-6.476,1.422,-1.622,-1.228
-1.752,-7.28,-5.952,1.433,-1.291,-0.634
-1.769,-8.735,-5.977,1.429,-1.36,-0.26
-1.28,-9.973,-5.852,1.327,-0.975,0.095
-1.542,-10.616,-6.004,1.159,-0.678,0.379
-1.99,-11.352,-5.724,0.855,-0.27,0.477
-2.349,-11.353,-5.451,0.472,0.042,0.375
-2.239,-11.334,-4.762,0.157,0.271,0.196
-2.657,-10.901,-4.132,-0.104,0.273,-0.062
-2.275,-10.54,-3.898,-0.337,0.388,-0.343
-1.613,-10.57,-4.055,-0.516,0.407,-0.597
-1.182,-10.682,-4.611,-0.706,0.451,-0.801
-0.635,-11.112,-5.361,-0.896,0.675,-0.92
-0.052,-11.964,-5.786,-1.011,0.948,-0.97
0.812,-12.458,-5.511,-1.287,0.77,-0.946
0.064,-11.207,-5.212,-1.624,0.315,-0.65
0.241,-9.342,-4.365,-1.908,0.761,0.312
1.184,-5.386,-3.471,-2.497,1.249,1.915
2.799,5.107,-3.049,-2.678,1.114,2.941
2.122,7.116,-4.539,-2.229,-0.236,3.102
1.311,9.754,-5.817,-1.719,0.332,2.286
2.754,12.569,-6.6,-0.983,0.284,1.059
2.493,12.203,-7.486,0.209,-0.778,-0.826
0.24,5.403,-8.555,0.886,-1.494,-2.183
-1.134,5.979,-8.339,1.141,-0.239,-2.67
0.281,4.092,-7.269,1.378,-0.369,-2.305
-1.218,0.377,-7.011,1.412,-1.192,-2.039
-2.586,-2.078,-6.628,1.344,-1.313,-1.625
-2.585,-4.99,-6.494,1.391,-0.96,-1.093
-1.213,-7.158,-5.956,1.465,-0.837,-0.545
-0.986,-8.782,-5.98,1.469,-1.063,-0.138
-0.956,-9.538,-6.026,1.309,-0.635,0.247
-0.504,-10.164,-6.132,1.099,-0.252,0.515
-0.871,-10.491,-5.744,0.889,-0.117,0.578
-1.416,-10.932,-5.114,0.569,0.052,0.485
-1.687,-11.11,-4.79,0.254,0.175,0.273
-1.792,-10.885,-4.599,-0.004,0.151,0.031
-1.385,-11.0,-4.533,-0.278,0.306,-0.18
-0.922,-11.258,-4.905,-0.636,0.533,-0.28
-0.393,-12.177,-5.486,-0.944,0.869,-0.419
0.194,-13.509,-5.377,-1.158,1.34,-0.528
0.722,-14.425,-4.945,-1.35,1.635,-0.519
0.677,-13.754,-4.762,-1.559,1.971,-0.129
1.721,-11.22,-3.472,-2.06,2.411,0.82
3.528,-0.473,-2.15,-3.045,2.179,1.889
3.297,5.854,-2.983,-2.952,0.722,2.564
1.881,8.208,-4.661,-2.637,0.703,2.174
4.155,11.128,-5.104,-2.029,0.546,1.517
4.504,12.198,-6.391,-0.981,-0.292,0.29
3.409,6.527,-8.029,0.604,-0.816,-1.055
3.377,4.691,-7.995,1.118,-0.355,-1.937
3.508,5.458,-7.59,1.459,-1.111,-1.81
0.29,3.515,-7.917,1.618,-1.471,-1.667
-1.239,1.696,-7.51,1.692,-1.359,-1.363
-2.344,-2.011,-6.942,1.659,-1.554,-0.919
-3.404,-5.095,-6.213,1.571,-1.242,-0.427
-2.565,-7.497,-5.644,1.433,-1.092,-0.007
-1.933,-9.256,-5.319,1.271,-1.071,0.223
-1.588,-10.705,-5.083,1.113,-1.008,0.346
-1.855,-11.105,-4.729,0.954,-0.471,0.434
-1.165,-11.682,-4.635,0.721,-0.238,0.37
-1.611,-12.167,-4.403,0.466,-0.139,0.201
-2.192,-12.157,-3.967,0.181,-0.065,-0.007
-2.333,-11.923,-3.935,-0.175,0.041,-0.336
-1.549,-11.751,-4.668,-0.482,0.137,-0.649
-0.997,-12.603,-4.919,-0.653,0.574,-0.878
-0.007,-12.903,-4.572,-0.799,0.995,-0.991
0.796,-13.455,-4.138,-1.005,1.175,-0.964
0.767,-13.65,-3.726,-1.274,1.364,-0.654
0.071,-12.32,-2.882,-1.726,1.825,-0.079
0.705,-8.191,-1.881,-2.579,2.204,0.873
2.826,1.512,-1.586,-3.455,2.454,1.744
4.005,6.427,-2.911,-3.309,1.387,2.27
4.039,8.954,-4.412,-2.791,0.268,1.868
4.643,11.344,-5.504,-2.003,-0.01,1.082
5.177,12.034,-6.66,-0.805,-0.455,0.028
3.693,6.194,-7.618,0.459,-1.236,-0.968
2.427,4.864,-7.706,0.742,-0.689,-1.637
2.367,5.215,-7.668,0.807,-0.203,-1.584
1.673,4.021,-7.854,0.913,-0.837,-1.373
-0.496,2.084,-7.816,1.099,-1.837,-1.208
-2.772,0.008,-7.859,1.274,-2.102,-1.027
-3.779,-3.023,-7.322,1.509,-1.89,-0.785
-3.835,-5.983,-6.868,1.719,-1.722,-0.59
-3.693,-8.366,-6.106,1.783,-1.37,-0.47
-3.011,-10.029,-5.703,1.65,-0.723,-0.389
-2.092,-11.297,-5.145,1.466,-0.202,-0.3
-1.048,-11.671,-4.653,1.169,-0.096,-0.325
-0.944,-11.862,-3.961,0.779,0.084,-0.339
-0.549,-11.871,-3.613,0.325,0.116,-0.403
-0.507,-11.627,-3.772,-0.088,0.104,-0.51
0.105,-11.404,-4.038,-0.476,0.081,-0.618
0.227,-10.93,-4.559,-0.765,0.055,-0.67
0.623,-11.195,-4.935,-1.023,0.293,-0.712
1.246,-11.922,-5.011,-1.226,0.69,-0.677
1.94,-13.163,-4.64,-1.455,1.109,-0.516
1.864,-13.498,-4.169,-1.811,1.531,-0.115
2.232,-11.653,-3.281,-2.427,1.991,0.749
3.589,-3.085,-2.425,-3.475,2.379,2.064
3.975,3.155,-2.346,-3.405,1.048,2.784
2.38,6.578,-4.23,-3.063,0.124,2.607
2.932,10.411,-5.538,-2.375,0.062,2.057
3.49,11.896,-6.555,-1.345,-0.017,0.976
3.102,7.425,-7.861,0.231,-0.672,-0.544
2.531,5.484,-8.963,0.811,-0.196,-1.588
3.211,6.477,-8.353,1.298,-0.105,-1.732
1.989,4.703,-8.119,1.596,-0.829,-1.667
0.33,3.035,-7.917,1.809,-1.628,-1.518
-1.971,0.193,-7.385,1.966,-2.016,-1.335
-3.012,-3.089,-6.39,2.012,-1.775,-0.978
-2.976,-6.416,-5.179,1.865,-1.443,-0.658
-2.551,-8.321,-4.489,1.661,-1.148,-0.391
-1.786,-10.366,-3.897,1.427,-0.707,-0.131
-1.024,-11.358,-3.827,1.186,-0.367,0.087
-0.452,-12.232,-3.672,0.873,-0.088,0.204
-0.36,-12.509,-3.865,0.554,0.003,0.194
-0.815,-12.476,-3.609,0.256,0.153,0.13
-1.452,-12.078,-3.616,-0.05,0.187,-0.068
-0.968,-11.694,-3.53,-0.39,0.285,-0.286
-0.64,-11.502,-4.086,-0.666,0.244,-0.441
0.021,-12.12,-4.367,-0.923,0.416,-0.584
0.812,-13.01,-4.385,-1.196,0.575,-0.754
1.52,-13.935,-4.165,-1.481,0.87,-0.746
1.436,-13.86,-3.543,-1.855,1.205,-0.424
1.345,-11.37,-2.787,-2.408,1.585,0.313
1.581,-3.459,-2.24,-3.27,2.162,1.44
2.552,3.079,-3.047,-3.249,1.6,2.356
2.756,7.785,-4.315,-2.874,0.588,2.504
2.944,10.576,-6.032,-2.243,0.123,2.045
3.612,12.273,-7.271,-1.314,0.07,1.097
4.189,9.256,-8.069,0.109,-0.505,-0.193
3.256,7.368,-8.022,0.754,-0.55,-1.334
2.466,6.583,-7.965,1.073,-0.3,-1.782
1.282,5.724,-7.833,1.309,-0.418,-1.79
0.353,3.397,-7.408,1.527,-1.074,-1.661
-1.451,0.158,-6.986,1.672,-1.823,-1.443
-2.239,-3.185,-6.586,1.761,-1.895,-1.115
-2.248,-6.087,-6.0,1.914,-1.681,-0.74
-1.138,-8.117,-5.001,1.991,-1.5,-0.489
-0.984,-9.784,-4.386,1.953,-1.255,-0.279
-0.624,-11.044,-4.152,1.812,-0.652,-0.036
-0.559,-12.064,-3.937,1.539,-0.277,0.178
-1.035,-12.761,-3.765,1.08,-0.078,0.27
-2.038,-12.982,-3.553,0.547,0.065,0.252
-2.28,-12.631,-3.376,-0.024,0.22,0.092
-1.894,-12.065,-3.372,-0.573,0.264,-0.154
-1.293,-11.462,-3.446,-1.014,0.333,-0.34
-0.222,-11.536,-3.784,-1.346,0.483,-0.495
0.739,-12.254,-4.514,-1.568,0.687,-0.561
1.241,-13.591,-5.13,-1.707,1.096,-0.463
1.213,-13.992,-5.019,-1.967,1.607,-0.079
1.519,-11.918,-4.319,-2.557,2.261,0.848
4.249,2.289,-2.086,-3.84,2.696,2.257
4.649,8.157,-1.225,-3.577,1.15,2.953
2.626,11.057,-2.31,-3.137,0.268,2.221
3.619,15.677,-2.87,-2.342,0.511,1.544
4.651,17.347,-3.607,-1.1,-0.106,0.293
2.095,6.997,-6.129,0.884,-1.039,-1.442
1.394,5.116,-7.243,1.334,-0.58,-2.496
1.606,5.561,-6.895,1.62,-0.775,-2.163
-0.05,2.405,-7.065,1.713,-1.901,-2.066
-2.034,-0.359,-7.601,1.756,-2.471,-1.867
-2.909,-3.715,-6.838,1.821,-2.406,-1.503
-2.838,-6.718,-6.324,1.831,-1.935,-0.982
-1.403,-8.83,-5.343,1.756,-1.364,-0.433
-1.145,-9.678,-5.154,1.614,-1.039,0.049
-1.474,-11.026,-4.136,1.372,-0.371,0.443
-1.859,-11.628,-4.044,0.991,-0.048,0.582
-2.735,-11.829,-3.708,0.55,0.36,0.517
-2.936,-11.725,-3.519,0.112,0.528,0.338
-2.881,-12.018,-3.327,-0.291,0.618,0.082
-2.361,-11.936,-3.816,-0.672,0.573,-0.227
-2.032,-11.658,-4.402,-0.997,0.758,-0.559
-1.072,-11.923,-4.679,-1.21,0.952,-0.868
-0.529,-12.56,-4.824,-1.338,1.128,-1.062
-0.112,-13.102,-4.682,-1.463,1.417,-1.026
0.257,-12.218,-4.418,-1.717,1.646,-0.624
1.02,-9.415,-3.771,-2.173,1.963,0.37
2.501,-1.797,-3.038,-3.011,2.177,1.669
3.226,4.497,-3.438,-2.995,1.284,2.53
3.33,7.631,-4.486,-2.674,0.125,2.465
2.929,10.698,-5.605,-2.03,-0.312,1.72
3.219,12.836,-6.347,-1.033,-0.819,0.47
1.904,9.124,-7.341,0.481,-1.865,-1.05
-0.368,6.166,-7.084,1.068,-1.896,-2.257
-2.047,5.281,-6.559,1.277,-1.33,-2.542
-2.387,2.659,-5.874,1.365,-1.322,-2.333
-3.427,-1.176,-6.047,1.417,-1.589,-1.956
-4.166,-4.495,-6.225,1.416,-1.042,-1.357
-2.992,-7.526,-6.615,1.442,-0.391,-0.61
-1.397,-9.297,-6.811,1.461,-0.158,0.016
-1.22,-10.583,-6.995,1.288,0.062,0.589
-1.695,-11.528,-6.607,0.979,0.347,0.972
-2.123,-11.82,-6.346,0.582,0.488,0.955
-2.128,-11.331,-5.819,0.239,0.555,0.737
-2.361,-10.771,-4.924,-0.031,0.623,0.459
-1.887,-9.746,-4.224,-0.227,0.536,0.133
-1.174,-8.865,-4.3,-0.398,0.395,-0.1
-0.704,-9.455,-5.12,-0.6,0.138,-0.2
-1.582,-11.194,-6.5,-0.844,0.158,-0.516
-2.243,-12.868,-7.166,-1.025,0.577,-1.109
-1.944,-14.732,-6.747,-1.201,1.052,-1.575
-1.947,-15.127,-5.936,-1.546,1.48,-1.547
-1.045,-12.059,-3.707,-2.186,2.204,-0.739
3.16,0.473,-0.778,-3.343,2.572,0.82
5.402,7.763,-0.014,-3.311,1.064,2.028
4.73,11.11,-1.699,-2.9,-0.643,2.097
4.458,15.096,-2.878,-2.134,-0.52,1.517
5.389,17.706,-3.95,-0.88,-0.82,0.369
2.298,9.593,-5.923,1.001,-2.209,-1.391
-1.541,5.233,-7.088,1.567,-1.893,-2.503
-1.82,3.813,-6.623,1.808,-0.691,-2.408
-1.3,-0.169,-6.288,1.91,-1.414,-2.103
-2.635,-5.083,-6.874,1.851,-2.11,-1.809
-2.5,-8.145,-6.922,1.724,-1.483,-1.182
0.059,-9.932,-6.308,1.598,-0.896,-0.501
0.94,-10.375,-5.768,1.352,-0.959,0.012
0.352,-10.63,-5.445,1.112,-0.769,0.483
-1.071,-10.855,-4.724,0.856,-0.214,0.732
-1.723,-11.146,-4.083,0.545,0.099,0.742
-2.585,-11.181,-3.636,0.241,0.184,0.618
-3.402,-10.969,-3.518,0.004,0.449,0.41
-2.89,-10.634,-3.468,-0.33,0.752,0.191
-1.731,-10.704,-4.38,-0.683,0.73,0.063
-1.388,-11.261,-5.617,-0.982,0.897,-0.226
-0.631,-12.151,-6.075,-1.162,1.347,-0.605
0.718,-13.787,-5.777,-1.262,1.716,-0.828
1.116,-14.235,-5.594,-1.453,1.749,-0.716
1.446,-12.384,-4.61,-1.891,2.147,-0.057
3.052,-4.309,-2.686,-2.948,2.508,1.318
3.66,2.908,-2.61,-2.901,1.474,2.341
2.77,5.977,-3.995,-2.637,-0.228,2.321
1.689,9.883,-5.213,-2.077,-0.483,1.525
2.385,12.849,-5.742,-1.109,-0.707,0.365
1.704,8.691,-6.845,0.605,-1.709,-1.217
-0.133,4.572,-7.203,1.078,-1.98,-2.35
-1.912,4.274,-6.794,1.251,-1.145,-2.402
-1.961,1.357,-6.63,1.326,-1.183,-1.97
-2.859,-3.139,-6.704,1.38,-1.766,-1.675
-4.138,-5.635,-6.893,1.289,-1.75,-1.354
-3.312,-7.52,-6.945,1.254,-0.966,-0.929
-1.075,-9.189,-6.695,1.252,-0.684,-0.597
-0.522,-9.855,-6.467,1.155,-0.756,-0.304
-0.845,-10.267,-6.206,0.921,-0.225,0.001
-0.89,-10.846,-5.579,0.686,0.178,0.196
-1.091,-11.153,-4.786,0.45,0.381,0.227
-1.436,-10.856,-4.347,0.206,0.496,0.168
-0.867,-11.337,-3.884,-0.036,0.766,0.158
-0.034,-13.287,-4.554,-0.41,0.744,-0.024
0.758,-14.483,-5.125,-0.81,1.127,-0.236
2.187,-15.882,-4.47,-1.246,1.412,-0.173
2.214,-16.333,-4.027,-1.804,1.456,0.246
2.207,-14.127,-2.849,-2.589,1.994,1.139
5.138,2.618,0.399,-3.716,1.905,2.476
3.074,8.89,-0.603,-3.319,0.551,3.032
2.668,12.507,-2.542,-2.82,0.796,2.254
3.846,17.68,-3.5,-1.788,0.489,1.191
4.133,19.473,-4.862,-0.366,-0.696,-0.279
0.44,8.113,-7.917,1.438,-1.426,-2.017
0.927,4.755,-7.881,1.737,-0.909,-2.815
-0.644,4.141,-7.472,1.999,-1.538,-2.307
-2.313,-0.796,-7.577,1.921,-1.548,-1.791
-3.197,-4.094,-7.336,1.735,-1.277,-1.353
-2.898,-6.808,-6.851,1.647,-0.796,-0.863
-1.287,-8.279,-5.745,1.471,-0.384,-0.463
-0.366,-9.759,-5.04,1.278,-0.398,-0.211
-0.039,-9.846,-4.325,0.969,-0.335,-0.002
-0.189,-10.793,-4.284,0.582,-0.215,0.17
-0.334,-11.965,-4.605,0.118,-0.181,0.089
-0.705,-12.286,-4.922,-0.311,0.068,-0.052
0.088,-12.967,-5.158,-0.743,0.27,-0.216
0.488,-13.794,-5.273,-1.13,0.525,-0.385
0.927,-13.844,-5.084,-1.428,0.904,-0.533
0.83,-13.524,-4.655,-1.66,1.092,-0.454
0.162,-12.781,-4.127,-1.916,1.214,-0.093
-0.662,-10.265,-3.954,-2.266,1.634,0.669
0.45,-4.291,-3.408,-2.939,2.26,1.904
2.099,3.015,-3.446,-2.768,1.368,2.514
2.087,5.923,-4.483,-2.321,0.212,2.354
2.591,9.021,-5.603,-1.669,0.136,1.64
3.945,11.664,-5.944,-0.737,-0.042,0.606
3.679,10.1,-6.908,0.697,-1.211,-0.922
1.482,6.102,-7.725,1.241,-1.353,-1.893
0.323,5.711,-7.511,1.514,-0.653,-2.05
-0.183,3.284,-7.018,1.634,-0.939,-1.753
-1.983,-0.664,-6.763,1.658,-1.721,-1.477
-3.595,-4.155,-6.482,1.507,-1.768,-1.202
-3.336,-7.1,-6.187,1.415,-1.162,-0.876
-1.212,-9.564,-6.113,1.355,-0.866,-0.627
-0.19,-11.158,-5.919,1.282,-0.921,-0.427
0.382,-12.037,-5.827,1.085,-0.492,-0.157
0.776,-12.02,-5.466,0.835,-0.071,0.104
0.843,-11.243,-5.129,0.466,-0.04,0.287
-0.087,-10.079,-4.518,0.055,0.115,0.457
-0.57,-10.027,-4.492,-0.324,0.333,0.562
-1.06,-10.272,-5.222,-0.676,0.332,0.409
-1.667,-11.514,-6.441,-0.933,0.65,0.07
-1.613,-13.51,-6.777,-1.035,1.233,-0.399
-1.431,-15.287,-6.459,-1.099,1.458,-0.861
-1.422,-14.42,-5.502,-1.314,1.603,-1.005
-0.197,-11.899,-3.848,-1.764,1.928,-0.381
1.97,-5.613,-1.886,-2.773,2.076,0.982
3.432,3.886,-2.117,-2.764,1.632,2.034
4.625,7.33,-3.184,-2.495,0.134,2.307
3.788,10.076,-4.828,-1.945,-0.245,1.806
4.131,12.162,-6.409,-1.058,-0.157,0.799
3.775,10.487,-8.002,0.481,-0.651,-0.697
2.696,5.358,-8.05,0.918,-1.149,-1.758
0.648,5.705,-7.988,1.134,-0.57,-2.065
0.717,3.931,-7.435,1.255,-0.623,-1.775
-0.842,1.34,-6.94,1.366,-1.507,-1.581
-2.502,-1.788,-6.67,1.382,-1.897,-1.388
-3.09,-4.635,-6.112,1.525,-1.79,-1.071
-1.919,-7.4,-5.911,1.606,-1.469,-0.702
-0.76,-9.321,-5.78,1.619,-1.385,-0.407
-0.559,-11.0,-6.048,1.511,-1.12,-0.064
-0.674,-11.645,-5.989,1.265,-0.708,0.188
-1.14,-11.944,-5.87,0.822,-0.26,0.302
-1.997,-11.777,-5.246,0.359,0.182,0.263
-2.415,-10.866,-4.632,-0.05,0.431,0.141
-2.132,-10.161,-4.438,-0.382,0.671,0.004
-1.448,-9.767,-4.922,-0.561,0.829,-0.045
-0.913,-9.969,-5.676,-0.68,0.871,-0.156
-0.563,-11.064,-6.269,-0.812,1.057,-0.356
0.052,-12.743,-6.265,-0.958,1.307,-0.592
0.307,-13.91,-5.503,-1.244,1.509,-0.71
0.429,-13.376,-4.268,-1.756,1.891,-0.442
1.464,-9.955,-2.512,-2.669,2.435,0.551
3.992,2.662,-1.473,-3.337,2.487,1.625
6.273,8.032,-1.754,-3.077,0.991,2.285
4.802,11.022,-3.054,-2.405,-0.777,1.808
4.441,14.706,-3.91,-1.6,-0.689,1.017
5.242,15.533,-5.056,-0.155,-1.179,-0.274
3.598,6.351,-5.927,1.065,-2.291,-1.496
-0.616,4.314,-6.725,1.364,-2.112,-2.309
-0.759,3.455,-6.592,1.353,-0.616,-1.967
-0.593,0.323,-6.676,1.513,-1.309,-1.673
-2.219,-3.229,-6.826,1.488,-1.962,-1.438
-3.193,-5.201,-6.612,1.518,-1.589,-1.028
-1.636,-7.342,-5.977,1.496,-0.974,-0.504
-0.652,-8.842,-5.528,1.464,-1.157,-0.131
-1.308,-10.13,-5.534,1.297,-1.171,0.144
-2.13,-10.807,-5.509,1.083,-0.658,0.335
-2.474,-11.696,-5.45,0.746,-0.149,0.377
-3.081,-11.422,-5.175,0.359,0.366,0.363
-3.101,-10.722,-4.91,-0.04,0.823,0.332
-2.862,-10.007,-4.434,-0.402,1.291,0.366
-2.031,-9.409,-4.29,-0.697,1.518,0.468
-1.543,-9.719,-4.92,-0.87,1.5,0.521
-1.409,-11.478,-5.983,-0.966,1.514,0.308
-1.148,-13.44,-6.434,-1.042,1.671,-0.161
-1.155,-14.488,-6.071,-1.18,1.759,-0.645
-1.19,-14.061,-4.731,-1.543,2.068,-0.84
-0.438,-10.998,-3.177,-2.184,2.346,-0.531
1.101,-3.091,-1.537,-3.039,2.665,0.384
3.876,4.436,-1.33,-2.998,1.822,1.267
5.667,8.675,-2.125,-2.525,-0.09,1.458
5.113,11.232,-4.523,-1.79,-0.748,1.113
6.172,12.993,-5.686,-0.75,-0.807,0.408
5.935,9.913,-6.962,0.675,-1.825,-0.737
2.887,6.567,-7.605,1.204,-2.095,-1.632
0.378,5.0,-8.242,1.445,-0.956,-1.846
0.728,3.435,-7.31,1.618,-1.022,-1.704
-1.192,-0.158,-7.21,1.756,-1.905,-1.686
-2.463,-2.621,-6.528,1.704,-1.737,-1.483
-2.021,-5.458,-5.992,1.711,-1.476,-1.193
-0.89,-7.571,-5.174,1.624,-1.487,-0.873
-0.724,-9.3,-5.564,1.446,-1.56,-0.662
-0.053,-9.913,-5.883,1.134,-1.059,-0.375
-0.026,-10.673,-6.233,0.832,-0.767,-0.125
-0.827,-10.941,-5.693,0.478,-0.302,0.08
-1.195,-11.073,-5.346,0.131,-0.017,0.135
-1.313,-10.751,-4.669,-0.075,0.161,0.131
-1.537,-10.723,-3.906,-0.171,0.214,0.098
-0.981,-10.919,-3.642,-0.301,0.25,0.007
-0.093,-11.292,-4.43,-0.523,0.421,-0.092
0.882,-12.011,-5.499,-0.768,0.836,-0.051
1.311,-13.73,-5.946,-1.051,1.26,0.005
0.924,-14.9,-5.673,-1.423,1.504,0.1
0.137,-14.034,-4.917,-1.964,2.044,0.55
0.312,-9.63,-3.317,-2.899,2.756,1.504
2.017,-0.08,-2.645,-2.976,3.039,2.152
4.481,5.214,-1.843,-2.636,1.453,2.343
3.446,8.634,-2.77,-2.013,-0.149,1.762
4.199,11.597,-3.959,-1.3,-0.323,0.976
4.817,11.762,-5.503,0.097,-1.172,-0.405
2.826,6.073,-6.089,0.736,-2.323,-1.627
-0.687,5.125,-7.271,0.975,-1.61,-2.334
-0.023,4.143,-7.935,1.002,-0.508,-2.178
-0.373,2.067,-8.167,1.236,-1.157,-2.098
-1.792,-1.562,-8.539,1.285,-1.677,-1.873
-2.406,-4.205,-8.274,1.29,-1.404,-1.487
-1.598,-6.687,-7.954,1.248,-1.21,-1.104
-0.947,-7.478,-7.082,1.237,-1.218,-0.81
-0.812,-8.225,-6.623,1.216,-1.041,-0.519
-0.078,-8.202,-5.687,1.202,-0.787,-0.34
-0.422,-8.938,-5.064,1.114,-0.559,-0.096
-0.788,-9.936,-4.541,0.951,-0.372,0.114
-1.763,-10.865,-4.478,0.691,-0.23,0.12
-1.985,-11.864,-4.2,0.329,-0.064,-0.024
-2.323,-11.935,-4.106,-0.068,0.218,-0.132
-1.457,-11.347,-4.039,-0.441,0.362,-0.257
-0.698,-11.145,-4.251,-0.753,0.738,-0.31
0.718,-11.797,-4.266,-0.97,1.094,-0.186
1.091,-13.013,-4.791,-1.225,1.25,-0.058
1.024,-14.411,-5.042,-1.458,1.577,0.135
1.108,-14.333,-4.667,-1.878,1.972,0.573
1.155,-10.838,-3.516,-2.636,2.372,1.517
2.839,2.222,-2.355,-2.999,2.617,2.352
4.664,5.802,-1.399,-2.622,1.07,2.626
3.326,9.506,-2.137,-2.099,-0.802,1.822
2.87,13.407,-3.02,-1.384,-0.566,0.979
4.046,14.069,-4.369,-0.11,-0.951,-0.35
2.185,4.972,-5.789,0.802,-2.279,-1.743
-1.483,4.862,-7.229,1.004,-1.949,-2.494
-1.939,3.514,-7.186,1.054,-0.593,-2.086
-1.945,0.234,-7.35,1.173,-1.44,-1.943
-4.077,-2.949,-7.775,1.151,-2.121,-1.863
-4.176,-5.949,-8.214,1.122,-1.489,-1.484
-2.688,-7.948,-8.113,1.193,-0.73,-1.01
-0.607,-8.978,-7.541,1.232,-0.71,-0.612
-0.893,-9.542,-7.127,1.168,-0.681,-0.267
-0.176,-9.728,-6.116,1.013,-0.081,0.053
-0.576,-9.598,-4.892,0.852,0.073,0.242
-1.021,-10.104,-3.694,0.611,0.254,0.292
-1.703,-10.585,-3.36,0.328,0.178,0.191
-1.692,-10.856,-3.207,0.057,0.178,0.016
-2.021,-10.683,-3.288,-0.167,0.037,-0.162
-1.88,-9.873,-3.366,-0.425,0.153,-0.3
-0.962,-9.816,-3.827,-0.669,0.267,-0.259
-0.559,-10.996,-5.157,-0.899,0.445,-0.253
-0.057,-13.459,-5.809,-1.064,0.956,-0.447
0.773,-15.753,-5.823,-1.203,1.729,-0.581
0.875,-16.587,-5.688,-1.448,1.903,-0.261
1.179,-13.802,-4.313,-2.31,2.64,0.655
3.001,-1.103,-2.234,-2.635,2.65,1.505
4.657,5.567,-1.071,-2.365,1.163,2.243
2.81,8.945,-1.898,-1.92,-0.911,1.843
2.276,13.553,-2.708,-1.429,-0.54,1.044
3.172,15.063,-3.933,-0.103,-1.268,-0.322
0.927,6.281,-5.419,0.811,-2.477,-1.662
-3.163,3.51,-6.779,1.103,-2.132,-2.479
-3.194,2.68,-6.744,1.22,-1.024,-2.093
-3.072,-1.769,-6.651,1.429,-1.931,-1.76
-5.038,-6.245,-7.27,1.434,-2.441,-1.51
-4.926,-8.815,-7.376,1.383,-1.52,-1.021
-2.463,-10.38,-6.972,1.207,-0.831,-0.589
-1.411,-10.701,-6.314,0.912,-0.591,-0.217
-0.816,-10.172,-5.882,0.608,-0.26,0.125
-0.698,-9.515,-5.2,0.428,0.109,0.369
-1.222,-9.709,-4.252,0.281,0.37,0.534
-2.286,-10.106,-3.651,0.251,0.349,0.477
-2.571,-10.66,-3.357,0.254,0.321,0.268
-3.02,-11.137,-3.162,0.184,0.322,0.019
-3.048,-10.674,-3.055,-0.021,0.503,-0.185
-2.039,-11.164,-3.69,-0.282,0.502,-0.4
-1.083,-11.992,-4.844,-0.585,0.651,-0.586
-0.101,-13.441,-5.484,-0.873,1.144,-0.755
1.814,-15.396,-4.884,-1.186,1.729,-0.753
3.927,-16.499,-3.844,-1.775,2.032,-0.179
4.688,-12.618,-1.94,-2.938,2.575,1.217
5.677,-0.897,-1.346,-3.002,2.57,2.259
5.622,3.6,-1.719,-2.685,0.704,2.715
2.676,8.122,-3.807,-2.138,-0.276,2.097
1.607,12.512,-5.408,-1.231,-0.099,1.17
2.084,12.513,-7.09,0.364,-0.46,-0.517
1.39,5.064,-7.343,0.892,-0.98,-1.831
0.392,4.378,-7.417,1.081,-0.095,-2.432
1.081,3.657,-7.293,1.147,-0.085,-2.006
0.166,0.453,-7.532,1.219,-1.145,-1.811
-1.523,-1.556,-7.97,1.284,-2.0,-1.52
-2.306,-4.625,-8.041,1.386,-2.309,-0.985
-2.349,-7.421,-7.891,1.489,-2.326,-0.471
-1.923,-9.152,-7.904,1.442,-2.168,-0.146
-1.764,-9.726,-7.414,1.239,-1.561,0.224
-1.885,-10.459,-6.62,1.029,-0.94,0.48
-2.549,-10.76,-5.479,0.747,-0.174,0.57
-3.252,-10.572,-4.643,0.431,0.201,0.454
-4.032,-10.802,-3.554,0.218,0.407,0.248
-4.326,-10.734,-3.42,0.05,0.383,-0.091
-4.057,-11.524,-4.04,-0.2,0.516,-0.422
-3.212,-11.655,-5.273,-0.361,0.662,-0.759
-1.874,-12.123,-5.829,-0.531,1.149,-1.018
-0.136,-12.864,-5.265,-0.717,1.572,-1.05
0.968,-13.697,-4.786,-0.985,1.761,-0.861
1.391,-13.325,-4.1,-1.38,1.999,-0.404
2.515,-10.713,-2.872,-2.158,2.396,0.67
5.187,1.748,-1.316,-3.422,2.571,2.135
5.546,7.259,-1.98,-3.304,1.225,2.942
4.312,8.913,-3.058,-2.875,-0.306,2.522
3.24,12.755,-3.881,-2.265,-0.55,1.577
3.23,14.934,-4.4,-1.215,-0.934,0.154
0.773,6.024,-5.844,0.446,-1.916,-1.584
-1.111,3.335,-6.338,0.699,-1.804,-2.764
-1.911,3.885,-6.62,0.828,-1.015,-2.69
-1.627,0.689,-6.286,1.021,-1.477,-2.286
-2.926,-2.853,-6.81,1.159,-2.182,-1.894
-3.651,-5.784,-6.556,1.299,-2.13,-1.307
-3.71,-7.944,-6.494,1.464,-1.971,-0.614
-3.428,-9.799,-6.137,1.449,-1.538,-0.167
-3.272,-10.622,-6.124,1.26,-1.092,0.161
-3.513,-11.808,-5.298,0.972,-0.579,0.391
-3.941,-11.915,-5.025,0.582,-0.152,0.4
-4.09,-11.871,-4.267,0.219,0.402,0.206
-3.714,-11.236,-3.7,-0.062,0.431,-0.034
-3.703,-10.534,-3.557,-0.279,0.424,-0.226
-3.456,-10.104,-4.324,-0.439,0.506,-0.389
-3.186,-10.541,-5.391,-0.606,0.727,-0.618
-2.238,-11.24,-5.934,-0.764,1.386,-0.777
-0.936,-12.735,-6.044,-0.883,1.963,-0.804
-0.163,-13.963,-5.547,-1.09,2.295,-0.617
0.732,-13.283,-4.535,-1.598,2.637,0.028
2.097,-8.619,-2.666,-2.608,2.961,1.44
3.908,1.612,-2.412,-2.633,2.303,2.408
2.102,2.978,-3.026,-2.416,0.223,2.514
1.046,7.603,-4.739,-1.939,-0.363,1.84
1.547,10.713,-5.21,-0.991,-0.263,0.754
2.111,9.735,-6.541,0.508,-1.076,-0.933
0.431,2.679,-7.035,0.918,-1.818,-2.092
0.412,4.464,-7.488,1.035,-1.083,-2.385
-0.179,2.207,-6.981,1.052,-1.177,-2.023
-1.851,-0.738,-7.507,0.998,-2.103,-1.713
-4.013,-3.113,-7.413,0.97,-2.461,-1.4
-4.874,-5.475,-7.376,1.049,-1.972,-1.034
-3.862,-7.54,-6.548,1.203,-1.327,-0.636
-2.445,-9.393,-6.203,1.225,-1.223,-0.336
-2.43,-10.731,-5.75,1.14,-0.796,-0.036
-1.844,-11.658,-5.588,0.937,-0.136,0.171
-1.669,-12.231,-4.686,0.658,0.185,0.186
-1.986,-12.25,-4.199,0.286,0.235,0.013
-2.44,-11.819,-3.782,-0.036,0.38,-0.219
-1.88,-11.114,-4.109,-0.365,0.398,-0.489
-1.485,-10.937,-4.938,-0.673,0.408,-0.763
-0.735,-11.465,-6.061,-0.88,0.772,-0.892
0.662,-12.646,-6.075,-1.019,1.278,-0.909
1.525,-13.578,-5.528,-1.245,1.683,-0.728
2.259,-13.653,-4.59,-1.632,2.059,-0.147
2.821,-11.354,-2.902,-2.251,2.393,0.979
5.249,-0.505,-0.776,-3.485,2.425,2.501
5.104,5.839,-0.948,-3.335,0.794,3.188
3.311,7.713,-2.968,-2.975,-0.516,2.654
2.355,12.035,-4.278,-2.307,-0.661,1.626
2.45,14.131,-5.642,-1.177,-1.329,0.216
-0.992,6.952,-7.437,0.552,-2.579,-1.811
-3.854,3.885,-8.396,0.888,-1.876,-2.901
-3.122,3.89,-7.248,1.15,-0.952,-2.731
-2.927,0.238,-6.98,1.263,-1.691,-2.384
-4.378,-3.758,-6.699,1.249,-1.689,-2.082
-3.694,-5.931,-6.606,1.355,-1.142,-1.455
-1.597,-7.974,-5.714,1.377,-0.819,-0.822
-1.458,-9.229,-5.53,1.258,-0.882,-0.384
-1.215,-10.299,-4.946,1.066,-0.39,-0.012
-1.436,-10.662,-4.795,0.812,-0.286,0.222
-1.891,-11.468,-4.434,0.433,0.087,0.29
-2.458,-11.526,-4.184,0.136,0.221,0.157
-2.485,-11.291,-3.774,-0.102,0.432,-0.002
-2.091,-10.895,-3.797,-0.312,0.5,-0.133
-0.823,-10.597,-3.866,-0.602,0.686,-0.083
-0.392,-10.121,-4.425,-0.913,0.864,0.114
-0.582,-10.522,-5.632,-1.158,1.109,0.229
-0.771,-11.946,-6.911,-1.258,1.44,0.101
-0.874,-13.128,-6.984,-1.277,1.864,-0.007
-0.437,-13.035,-6.208,-1.433,2.208,0.209
0.542,-10.804,-4.618,-2.01,2.395,0.951
4.111,2.388,-2.182,-2.896,2.458,1.876
6.078,7.863,-1.331,-2.698,1.042,2.511
5.226,10.929,-2.379,-2.295,-0.567,2.095
4.097,15.159,-3.333,-1.668,-0.52,1.29
4.552,16.763,-4.48,-0.42,-1.063,-0.048
1.109,6.507,-6.367,1.107,-2.349,-1.573
-2.178,4.154,-6.757,1.37,-2.077,-2.457
-2.718,2.774,-6.325,1.415,-1.197,-2.245
-2.711,-1.088,-5.995,1.539,-1.966,-2.026
-4.031,-5.051,-6.312,1.458,-2.408,-1.876
-3.579,-7.947,-6.53,1.363,-1.804,-1.497
-1.546,-9.91,-6.858,1.295,-1.251,-1.151
-0.284,-10.634,-6.517,1.124,-1.106,-0.853
-0.458,-11.444,-6.293,0.826,-0.686,-0.526
-0.732,-11.6,-5.488,0.507,-0.185,-0.235
-0.977,-10.92,-4.54,0.159,0.102,-0.074
-1.099,-9.939,-3.497,-0.129,0.315,0.08
-1.005,-9.629,-3.438,-0.296,0.58,0.315
-0.877,-9.979,-4.16,-0.421,0.62,0.452
-1.551,-11.556,-5.53,-0.537,0.74,0.328
-1.267,-13.443,-5.809,-0.666,1.372,-0.021
-0.261,-15.413,-5.325,-0.895,1.788,-0.377
-0.011,-16.064,-4.642,-1.297,1.853,-0.543
0.409,-14.264,-3.648,-1.939,2.19,-0.218
2.201,-8.303,-2.365,-2.873,2.751,0.715
4.135,1.513,-2.478,-3.327,2.593,1.948
4.587,7.1,-2.533,-3.005,0.926,2.619
2.97,8.811,-3.703,-2.44,-0.478,2.092
2.606,11.963,-4.883,-1.615,-0.657,1.015
2.999,12.187,-5.643,-0.239,-1.208,-0.366
1.492,6.772,-6.112,0.702,-2.394,-1.874
-1.522,4.403,-7.496,0.911,-1.928,-2.83
-1.119,4.304,-7.478,1.108,-1.084,-2.659
-1.168,0.291,-7.02,1.378,-1.843,-2.361
-2.488,-4.176,-7.177,1.444,-2.378,-2.07
-2.681,-6.763,-6.923,1.591,-1.799,-1.527
-0.803,-8.804,-6.446,1.764,-1.317,-0.926
-0.485,-10.526,-5.675,1.757,-1.04,-0.441
-0.64,-11.648,-5.548,1.52,-0.572,0.023
-1.408,-12.319,-5.03,1.159,-0.214,0.301
-2.323,-12.565,-4.433,0.667,0.181,0.302
-2.68,-12.312,-3.488,0.173,0.666,0.181
-2.172,-11.106,-2.935,-0.248,0.784,-0.031
-1.503,-9.952,-2.556,-0.541,0.77,-0.163
-0.461,-9.595,-3.213,-0.723,0.746,-0.129
0.181,-10.877,-4.908,-0.925,0.631,-0.173
0.447,-12.575,-6.078,-1.077,0.951,-0.274
1.176,-14.632,-6.306,-1.242,1.455,-0.23
1.338,-14.986,-5.986,-1.631,1.864,0.142
1.726,-11.855,-4.09,-2.519,2.523,1.091
3.945,2.517,-1.82,-2.96,2.954,2.15
5.823,7.006,-1.011,-2.693,1.322,2.803
4.085,10.654,-1.978,-2.197,-0.994,2.164
2.469,15.223,-2.852,-1.555,-1.011,1.113
2.853,16.237,-4.139,-0.166,-1.584,-0.39
-0.184,5.594,-5.21,0.81,-3.123,-2.022
-4.275,3.818,-6.147,1.022,-2.745,-3.081
-4.131,2.611,-6.058,1.059,-1.224,-2.884
-2.703,-2.167,-6.207,1.206,-1.829,-2.574
-3.651,-6.114,-6.81,1.174,-2.042,-2.256
-2.466,-8.482,-7.363,1.171,-1.153,-1.481
-0.48,-9.894,-7.048,1.108,-0.597,-0.722
-0.112,-10.894,-6.652,0.911,-0.405,-0.153
-0.286,-10.567,-6.273,0.681,-0.089,0.251
-1.056,-10.518,-5.316,0.453,0.084,0.473
-1.603,-10.624,-4.4,0.188,0.224,0.412
-2.086,-10.28,-4.142,-0.018,0.289,0.314
-2.057,-10.968,-4.537,-0.164,0.398,0.296
-2.676,-12.11,-5.143,-0.402,0.534,0.152
-1.904,-12.877,-5.829,-0.73,1.174,-0.124
-0.848,-13.711,-6.081,-0.978,1.884,-0.308
0.427,-15.064,-5.615,-1.203,2.355,-0.433
1.019,-14.452,-4.564,-1.462,2.84,-0.204
2.67,-11.429,-2.899,-2.11,3.417,0.815
5.959,2.954,-0.272,-3.464,3.203,2.066
7.247,8.254,-0.27,-3.258,1.445,2.749
5.525,11.136,-1.355,-2.745,-0.752,2.044
4.309,16.235,-2.165,-2.233,-1.01,1.071
4.218,17.998,-3.439,-1.01,-2.007,-0.431
0.06,6.282,-6.048,0.854,-3.19,-2.123
-3.254,3.321,-6.581,1.061,-2.626,-3.105
-2.981,2.064,-6.577,0.959,-1.074,-2.669
-2.053,-3.185,-7.022,1.037,-1.673,-2.282
-3.085,-6.648,-7.296,0.948,-1.933,-1.92
-2.275,-8.13,-7.303,0.984,-1.453,-1.322
-0.947,-9.046,-7.146,1.048,-1.25,-0.812
-0.701,-9.143,-6.914,1.059,-1.176,-0.391
-1.261,-9.077,-6.515,0.963,-0.878,0.007
-2.271,-9.752,-6.029,0.811,-0.343,0.334
-3.003,-10.612,-5.452,0.546,0.044,0.393
-3.807,-10.915,-4.891,0.245,0.476,0.232
-3.44,-10.604,-4.053,-0.013,0.979,0.093
-2.324,-9.994,-3.344,-0.281,1.163,-0.004
-0.863,-10.666,-3.744,-0.596,1.08,-0.158
0.061,-11.473,-4.82,-0.863,1.078,-0.293
0.939,-12.577,-5.302,-1.065,1.366,-0.397
1.569,-14.153,-5.582,-1.238,1.561,-0.47
1.666,-14.787,-5.609,-1.514,1.662,-0.306
1.859,-12.271,-4.825,-1.958,2.046,0.41
2.931,-5.354,-3.08,-2.888,2.449,1.804
3.958,3.037,-2.913,-2.794,1.815,2.696
4.214,5.258,-3.391,-2.528,-0.241,2.633
2.013,8.939,-5.18,-2.03,-1.358,1.675
1.094,12.431,-6.018,-1.199,-1.122,0.494
1.026,10.078,-7.179,0.347,-1.535,-1.244
-1.166,4.941,-7.307,0.78,-2.279,-2.496
-3.952,4.403,-7.378,0.95,-1.088,-2.697
-2.95,1.94,-6.197,1.093,-0.358,-2.272
-2.305,-3.038,-5.846,1.183,-1.303,-2.055
-3.739,-6.23,-5.734,1.154,-1.775,-1.748
-2.438,-8.692,-6.067,1.276,-0.993,-1.152
-0.158,-9.613,-6.686,1.402,-0.646,-0.627
0.525,-10.944,-6.967,1.314,-0.596,-0.104
-0.615,-11.025,-7.03,1.102,-0.166,0.279
-0.9,-11.355,-6.435,0.773,0.468,0.471
-1.412,-11.188,-5.406,0.336,0.662,0.381
-1.72,-10.549,-4.113,-0.028,0.626,0.222
-1.811,-9.632,-3.471,-0.251,0.653,0.12
-1.266,-9.771,-3.606,-0.407,0.527,0.132
-1.541,-10.018,-4.546,-0.542,0.407,0.044
-1.393,-10.863,-5.652,-0.714,0.736,-0.115
-0.551,-12.568,-5.714,-0.894,1.12,-0.388
0.354,-14.425,-5.48,-1.146,1.421,-0.636
1.267,-14.66,-4.988,-1.541,1.735,-0.624
2.95,-12.912,-4.099,-2.194,2.258,0.206
5.818,-4.16,-1.523,-3.595,2.688,2.038
5.634,3.139,-0.645,-3.421,1.06,2.932
2.21,4.656,-2.188,-3.074,-0.142,2.313
2.221,9.99,-2.629,-2.415,0.353,1.557
3.39,13.174,-3.254,-1.263,-0.376,0.178
0.982,8.111,-5.753,0.7,-1.831,-2.002
-0.656,4.567,-7.739,1.088,-1.461,-3.144
0.335,5.771,-7.62,1.388,-0.797,-2.745
-0.345,1.771,-7.473,1.572,-1.767,-2.433
-2.499,-1.925,-7.391,1.541,-2.115,-2.003
-2.972,-4.954,-6.845,1.547,-1.839,-1.516
-2.225,-7.353,-6.12,1.578,-1.225,-0.955
-0.337,-8.975,-5.601,1.516,-1.124,-0.526
-0.23,-9.898,-5.972,1.286,-1.102,-0.156
-0.329,-10.848,-6.204,0.993,-0.613,0.135
-1.185,-10.919,-6.047,0.64,-0.212,0.284
-1.578,-11.262,-5.594,0.248,0.134,0.201
-2.189,-10.981,-4.985,-0.067,0.306,0.04
-2.205,-10.226,-4.229,-0.283,0.56,-0.1
-1.549,-9.32,-3.669,-0.444,0.512,-0.189
-0.811,-9.387,-4.436,-0.552,0.496,-0.158
-0.862,-9.778,-6.267,-0.523,0.944,-0.111
0.476,-11.779,-6.454,-0.623,1.712,-0.128
1.307,-13.812,-6.186,-0.857,1.836,-0.157
1.47,-14.968,-5.505,-1.294,2.298,0.042
2.923,-13.567,-3.809,-2.086,2.805,0.726
5.361,-5.568,-0.975,-3.646,2.99,2.246
5.826,2.5,-0.699,-3.572,1.42,2.987
3.776,4.434,-2.041,-3.16,-0.494,2.539
2.461,9.019,-3.692,-2.497,-0.517,1.784
2.674,11.715,-5.069,-1.359,-0.592,0.586
1.471,7.22,-6.812,0.501,-1.48,-1.347
-0.294,3.906,-7.793,0.85,-1.116,-2.463
0.148,5.482,-7.929,1.037,0.299,-2.337
0.692,2.862,-7.791,1.257,-0.154,-2.122
-0.805,-0.046,-7.361,1.4,-0.979,-1.935
-2.231,-2.434,-6.952,1.526,-0.984,-1.599
-1.52,-5.725,-6.614,1.664,-0.436,-1.034
1.008,-8.493,-6.243,1.693,-0.496,-0.508
2.45,-10.111,-6.46,1.406,-0.39,0.069
2.678,-11.069,-6.982,0.994,0.055,0.587
2.8,-11.822,-7.003,0.593,0.281,0.736
2.29,-11.476,-6.35,0.263,0.137,0.592
0.741,-10.691,-5.477,0.024,0.4,0.396
-0.234,-10.028,-4.404,-0.014,0.173,0.072
-0.187,-9.271,-3.926,-0.034,-0.126,-0.231
0.571,-8.829,-4.127,-0.163,-0.318,-0.207
0.685,-9.676,-5.233,-0.377,-0.656,-0.077
0.09,-11.77,-6.513,-0.716,-0.423,-0.12
0.078,-13.981,-7.054,-1.028,0.197,-0.323
0.362,-15.761,-6.524,-1.363,0.848,-0.403
0.506,-15.433,-5.522,-1.808,1.293,-0.148
0.889,-11.549,-3.562,-2.539,2.091,0.782
3.463,1.875,-1.007,-3.053,2.173,1.869
4.402,6.945,-0.723,-2.734,0.607,2.492
3.224,10.374,-2.331,-2.267,-0.372,2.202
3.791,13.635,-3.194,-1.59,-0.104,1.482
4.522,14.226,-5.016,-0.495,-0.518,0.16
2.867,6.108,-7.273,0.534,-1.059,-1.152
1.027,5.815,-8.364,0.833,-0.653,-2.026
0.387,5.783,-8.507,1.102,-0.27,-1.99
-0.543,3.185,-9.002,1.412,-0.91,-1.907
-1.937,0.336,-8.492,1.648,-1.353,-1.787
-2.526,-3.006,-8.258,1.776,-1.279,-1.594
-1.446,-6.0,-7.386,1.778,-0.741,-1.108
0.561,-8.171,-6.499,1.61,-0.693,-0.661
0.751,-9.096,-6.425,1.269,-0.691,-0.14
0.66,-9.432,-6.807,0.846,-0.266,0.303
0.284,-9.131,-6.619,0.53,0.074,0.621
-0.394,-8.971,-6.424,0.309,0.378,0.786
-1.07,-8.896,-6.074,0.243,0.6,0.812
-1.367,-8.831,-5.6,0.287,0.67,0.713
-1.167,-9.013,-5.07,0.354,0.592,0.586
-1.04,-8.914,-4.921,0.355,0.462,0.461
-1.005,-8.914,-4.78,0.303,0.33,0.316
-1.159,-8.727,-4.676,0.225,0.216,0.143
-1.124,-8.662,-4.512,0.151,0.172,-0.033
-1.243,-8.509,-4.534,0.107,0.094,-0.18
-1.316,-8.457,-4.623,0.082,0.031,-0.268
-1.178,-8.146,-4.843,0.043,-0.02,-0.275
-1.08,-8.035,-5.112,-0.013,-0.041,-0.183
-0.993,-7.904,-5.31,-0.072,-0.075,-0.065
-0.953,-7.78,-5.317,-0.134,-0.063,0.028
-0.972,-7.757,-5.332,-0.198,-0.084,0.095
-1.306,-7.756,-5.493,-0.247,-0.148,0.067
-1.746,-7.566,-5.825,-0.254,-0.187,-0.068
-1.971,-7.287,-6.208,-0.224,-0.2,-0.255
-2.196,-6.852,-6.661,-0.162,-0.219,-0.445
-2.143,-6.355,-6.922,-0.076,-0.225,-0.592
-1.975,-5.868,-6.98,-0.022,-0.205,-0.64
-1.6,-5.568,-6.936,-0.038,-0.208,-0.598
-1.287,-5.402,-6.923,-0.107,-0.207,-0.476
-0.733,-5.459,-6.7,-0.212,-0.197,-0.267
-0.195,-5.596,-6.337,-0.357,-0.206,0.017
0.053,-5.738,-5.808,-0.535,-0.175,0.372
-0.557,-6.044,-5.473,-0.742,-0.215,0.812
-1.74,-7.583,-6.077,-0.932,-0.445,1.071
-3.43,-9.966,-7.928,-1.106,-0.292,0.862
-4.132,-12.188,-9.246,-1.161,0.345,0.215
-3.417,-14.366,-9.059,-1.16,1.01,-0.594
-2.272,-15.71,-8.207,-1.244,1.46,-1.178
-0.504,-14.029,-6.338,-1.472,2.19,-1.006
2.477,-9.005,-2.986,-2.142,2.451,0.313
4.419,3.642,-0.723,-2.398,1.724,1.633
4.931,7.577,-1.386,-2.178,0.011,2.35
3.996,11.277,-3.469,-1.701,-0.744,2.061
3.936,14.829,-4.441,-1.081,-0.637,1.151
3.559,14.623,-6.145,0.132,-1.144,-0.445
1.428,5.643,-7.952,0.789,-1.657,-1.753
-0.968,4.836,-8.504,1.038,-1.062,-2.358
-1.013,3.409,-7.45,1.214,-0.809,-2.148
-1.527,-0.91,-7.216,1.417,-1.737,-1.901
-2.884,-3.557,-6.722,1.483,-1.956,-1.595
-2.11,-6.025,-5.887,1.605,-1.565,-1.132
-1.164,-8.379,-5.217,1.631,-1.244,-0.65
-0.744,-11.013,-5.596,1.454,-1.041,-0.329
-1.164,-12.175,-6.238,1.128,-0.54,-0.018
-1.346,-13.012,-6.476,0.677,-0.071,0.126
-2.115,-12.628,-6.329,0.198,0.454,0.09
-1.603,-11.54,-5.728,-0.277,0.911,0.032
-1.137,-10.491,-4.916,-0.601,0.953,0.026
-0.673,-10.289,-4.94,-0.809,0.886,-0.041
0.003,-11.191,-5.518,-0.888,1.029,-0.253
1.629,-12.592,-5.619,-0.917,1.224,-0.385
2.413,-14.054,-5.48,-1.086,1.14,-0.272
2.197,-13.176,-5.121,-1.484,1.302,0.316
2.909,-8.788,-3.046,-2.512,1.877,1.592
3.883,2.197,-3.128,-2.503,2.068,2.534
4.543,5.294,-3.196,-2.317,0.538,2.734
2.377,9.464,-4.863,-1.838,-0.754,1.803
1.738,13.904,-5.871,-1.111,-0.585,0.503
2.062,13.698,-7.787,0.449,-1.008,-1.279
0.807,6.134,-7.502,0.916,-2.033,-2.597
-2.012,5.568,-7.795,1.107,-1.493,-3.081
-1.537,3.503,-6.75,1.163,-0.572,-2.554
-0.765,-1.478,-6.576,1.273,-1.288,-2.147
-1.859,-4.669,-6.41,1.274,-1.956,-1.82
-1.824,-7.391,-6.384,1.36,-1.611,-1.31
-0.71,-9.679,-6.896,1.405,-1.053,-0.839
-0.547,-11.722,-7.597,1.278,-0.85,-0.505
-1.366,-12.173,-7.206,0.989,-0.223,-0.217
-1.535,-12.216,-6.376,0.563,0.454,-0.149
-1.492,-11.23,-4.969,0.104,0.896,-0.201
-1.272,-9.446,-3.344,-0.203,1.01,-0.249
-0.423,-7.761,-2.023,-0.313,0.954,-0.219
0.789,-8.057,-2.644,-0.321,0.559,-0.026
1.314,-10.041,-4.927,-0.432,0.161,0.172
1.045,-12.343,-6.845,-0.667,0.43,0.125
1.654,-14.286,-7.291,-0.958,0.945,0.007
1.613,-15.299,-7.09,-1.42,1.255,0.075
1.21,-13.321,-5.763,-2.112,1.884,0.529
2.235,-6.222,-2.689,-3.312,2.956,1.727
4.574,2.754,-1.594,-3.174,2.349,2.541
4.528,6.052,-2.073,-2.764,-0.053,2.533
2.459,9.705,-3.806,-2.137,-0.554,1.706
3.008,13.116,-4.782,-1.169,-0.626,0.592
2.275,10.17,-6.491,0.568,-1.878,-1.142
-1.189,5.18,-7.275,0.958,-2.498,-2.328
-3.44,4.215,-7.857,1.113,-0.82,-2.528
-1.902,2.091,-7.221,1.297,-0.59,-2.15
-2.434,-2.719,-7.188,1.406,-1.422,-1.971
-3.097,-4.751,-6.823,1.409,-1.382,-1.689
-1.612,-6.897,-6.224,1.549,-0.764,-1.229
0.424,-8.444,-5.366,1.599,-0.771,-0.876
0.51,-10.429,-5.056,1.449,-0.858,-0.537
0.515,-11.266,-4.984,1.118,-0.539,-0.235
0.252,-11.953,-5.18,0.714,-0.292,-0.046
-0.357,-12.344,-5.017,0.261,-0.052,-0.027
-1.1,-11.8,-5.052,-0.136,0.161,-0.11
-0.789,-10.759,-5.013,-0.431,0.506,-0.16
-0.553,-10.391,-5.042,-0.615,0.774,-0.156
0.243,-10.745,-5.029,-0.787,1.11,-0.159
1.273,-11.487,-5.084,-0.959,1.348,-0.127
2.271,-13.29,-4.784,-1.134,1.586,-0.069
2.895,-14.498,-3.941,-1.484,1.581,0.183
3.388,-12.952,-2.808,-2.159,1.711,0.995
5.316,-1.762,-0.167,-3.672,2.11,2.603
5.034,4.578,-0.691,-3.355,1.168,3.155
4.436,7.759,-2.315,-2.864,0.2,2.229
3.238,14.814,-3.431,-2.089,0.245,1.153
3.99,17.265,-4.644,-0.715,-0.194,-0.137
1.546,8.778,-7.624,1.442,-1.521,-2.202
0.383,4.644,-7.774,1.725,-1.573,-3.119
-0.824,4.251,-6.99,1.845,-1.049,-2.374
-0.278,-2.112,-7.034,1.865,-1.523,-1.75
-2.219,-5.394,-7.229,1.736,-1.756,-1.461
-1.757,-7.568,-6.648,1.655,-1.263,-1.046
-0.662,-9.062,-6.208,1.523,-0.65,-0.596
0.893,-10.374,-6.046,1.245,-0.518,-0.257
0.712,-10.215,-5.914,0.986,-0.289,0.134
0.187,-10.83,-5.304,0.649,0.131,0.418
-0.626,-10.96,-5.044,0.29,0.383,0.454
-1.214,-10.571,-4.591,0.01,0.491,0.365
-1.502,-10.673,-4.282,-0.09,0.496,0.17
-1.287,-11.541,-3.844,-0.218,0.466,-0.138
0.121,-11.951,-3.601,-0.468,0.685,-0.426
1.847,-12.616,-3.613,-0.729,1.06,-0.493
3.234,-14.581,-3.727,-1.004,1.254,-0.395
3.482,-15.584,-3.157,-1.429,1.379,0.057
3.474,-13.246,-2.299,-2.33,1.557,1.1
5.833,4.203,0.679,-3.882,1.854,2.746
4.743,8.639,-0.781,-3.55,0.995,3.381
4.493,13.073,-1.314,-2.999,0.429,2.58
3.85,19.167,-1.913,-2.169,0.209,1.432
4.864,21.107,-3.3,-0.777,-0.307,0.078
1.621,6.97,-7.138,1.401,-1.917,-1.884
-0.457,4.511,-7.123,1.731,-2.201,-2.855
-2.128,3.277,-6.975,1.876,-1.888,-2.392
-2.22,-1.875,-7.72,1.856,-2.073,-1.836
-4.248,-5.312,-7.692,1.858,-1.885,-1.571
-3.859,-8.0,-7.516,1.743,-0.969,-1.256
-1.896,-9.262,-6.174,1.478,-0.133,-1.033
-0.394,-10.171,-5.636,1.078,-0.063,-0.887
0.083,-9.269,-4.519,0.638,0.114,-0.713
1.078,-8.359,-4.437,0.12,0.009,-0.448
0.376,-7.773,-4.576,-0.166,-0.095,-0.152
-0.639,-7.941,-5.022,-0.198,-0.228,0.166
-1.758,-8.8,-5.617,-0.173,-0.057,0.349
-1.862,-10.338,-6.174,-0.19,0.326,0.41
-1.784,-12.023,-6.102,-0.296,0.854,0.276
-0.834,-13.219,-5.436,-0.564,1.472,0.061
0.774,-14.209,-4.62,-0.907,1.902,-0.19
2.022,-15.817,-3.116,-1.304,1.897,-0.279
2.345,-15.68,-1.767,-1.873,1.778,0.009
2.894,-12.776,-0.168,-2.797,1.849,1.028
5.122,3.697,1.122,-3.667,1.785,2.092
6.174,7.152,-0.021,-3.297,0.696,2.512
5.706,12.29,-2.005,-2.586,-0.724,1.761
4.793,18.438,-3.399,-1.567,-0.822,0.663
5.174,20.004,-4.985,0.068,-1.55,-0.828
1.598,5.957,-7.178,1.645,-2.934,-2.384
-1.777,4.723,-7.388,1.899,-2.616,-3.092
-2.78,2.29,-7.18,1.913,-1.397,-2.649
-2.148,-2.994,-6.884,1.89,-1.608,-2.125
-3.243,-6.422,-7.465,1.658,-1.573,-1.794
-1.893,-8.403,-6.919,1.415,-0.728,-1.4
-0.135,-8.891,-6.348,1.144,-0.457,-1.097
1.212,-9.091,-5.457,0.819,-0.45,-0.782
1.154,-8.166,-5.524,0.467,-0.553,-0.442
0.557,-8.149,-4.933,0.188,-0.421,-0.043
-0.52,-8.526,-5.185,-0.078,-0.181,0.313
-1.123,-9.434,-5.769,-0.241,-0.04,0.5
-1.573,-10.766,-6.411,-0.356,0.284,0.553
-1.535,-12.455,-6.343,-0.487,0.952,0.446
-0.191,-13.412,-5.888,-0.738,1.671,0.253
1.35,-13.763,-4.966,-1.107,2.07,0.127
2.468,-14.275,-3.649,-1.512,2.45,0.265
3.16,-13.654,-2.139,-2.063,2.508,0.824
4.085,-9.886,-1.324,-3.041,2.528,2.028
5.738,3.633,-0.992,-3.031,2.075,2.696
5.094,3.458,-2.418,-2.612,0.527,2.47
4.308,9.409,-3.668,-1.956,-0.141,1.606
4.95,14.908,-4.352,-0.786,-0.716,0.417
3.81,14.814,-5.251,0.876,-2.454,-1.452
-1.105,3.811,-6.133,1.581,-3.404,-2.751
-2.218,5.531,-5.605,1.928,-2.592,-3.021
-2.599,-0.702,-5.623,2.014,-2.846,-2.833
-4.629,-7.067,-7.406,1.733,-3.049,-2.619
-4.369,-10.369,-8.503,1.305,-1.782,-2.181
-2.116,-11.767,-8.648,0.779,-0.684,-1.691
-0.749,-11.239,-8.006,0.309,-0.226,-1.298
-0.041,-8.766,-6.742,0.019,0.044,-0.851
0.158,-6.634,-4.767,-0.118,0.256,-0.379
-0.379,-6.2,-3.161,-0.048,0.175,0.025
-0.729,-6.987,-2.783,0.147,-0.291,0.306
-2.152,-8.525,-3.56,0.245,-0.614,0.446
-3.131,-9.557,-4.403,0.099,-0.275,0.51
-3.106,-10.835,-4.936,-0.174,0.235,0.527
-2.843,-11.114,-5.539,-0.54,0.424,0.416
-2.45,-10.864,-6.033,-0.91,0.942,0.272
-1.306,-11.199,-6.202,-1.151,1.59,0.111
0.215,-12.245,-6.032,-1.192,1.966,-0.088
1.406,-12.819,-5.706,-1.313,2.065,-0.165
2.306,-12.053,-4.784,-1.674,2.3,0.277
3.433,-8.798,-3.455,-2.514,2.506,1.35
4.982,4.107,-2.532,-2.945,1.99,2.152
5.742,9.012,-2.635,-2.61,0.576,2.68
3.715,13.258,-4.029,-1.956,-0.77,1.792
2.9,17.876,-4.811,-1.06,-0.515,0.827
3.005,17.831,-5.845,0.597,-1.272,-0.671
0.494,6.832,-6.202,1.686,-2.253,-1.831
-2.471,3.364,-6.578,1.802,-1.851,-2.55
-1.88,0.598,-5.844,1.822,-0.974,-1.86
-1.575,-4.519,-5.676,1.882,-1.75,-1.438
-2.946,-7.368,-5.705,1.695,-1.87,-1.035
-2.46,-8.893,-5.87,1.642,-0.763,-0.432
-0.862,-10.206,-5.15,1.547,-0.129,0.091
-0.604,-11.557,-4.864,1.208,0.048,0.406
-1.033,-12.084,-5.062,0.812,0.312,0.54
-0.906,-12.612,-4.974,0.393,0.85,0.578
-0.381,-12.419,-4.649,-0.02,0.805,0.33
-0.152,-11.735,-4.85,-0.317,0.728,0.003
0.956,-12.268,-4.928,-0.572,0.643,-0.27
1.031,-12.56,-4.66,-0.963,0.708,-0.529
1.503,-12.913,-4.367,-1.36,0.967,-0.68
1.337,-13.801,-3.999,-1.744,1.114,-0.608
1.011,-13.172,-3.27,-2.228,1.69,-0.058
1.104,-8.303,-2.904,-3.113,2.335,1.013
3.759,2.61,-2.553,-3.175,2.299,2.083
4.323,6.694,-3.324,-2.548,0.113,2.149
2.61,11.608,-5.236,-1.878,0.246,1.47
4.899,16.018,-5.383,-0.789,0.426,0.736
5.512,14.942,-5.889,0.89,-0.885,-0.597
2.482,7.061,-6.752,1.808,-1.993,-1.834
-0.091,4.453,-6.923,1.89,-0.462,-2.066
1.809,1.962,-5.524,1.927,-0.852,-1.574
-0.4,-2.674,-5.985,1.82,-2.319,-1.443
-2.282,-5.027,-5.725,1.679,-2.167,-1.158
-1.575,-7.557,-5.244,1.628,-1.447,-0.741
0.373,-8.968,-4.717,1.584,-1.336,-0.318
0.343,-11.518,-5.109,1.359,-1.35,0.047
-0.567,-12.541,-5.467,0.982,-0.7,0.397
-0.927,-13.035,-5.497,0.463,-0.228,0.482
-1.54,-12.597,-5.599,-0.066,0.128,0.287
-1.558,-11.543,-5.204,-0.46,0.438,0.046
-1.152,-9.789,-4.877,-0.69,0.497,-0.193
-0.069,-10.088,-5.26,-0.901,0.4,-0.397
-0.17,-11.333,-6.324,-1.083,0.532,-0.654
0.627,-12.628,-6.315,-1.19,1.089,-0.903
1.701,-13.798,-5.637,-1.415,1.265,-0.846
1.196,-13.303,-5.109,-1.818,1.446,-0.295
1.975,-8.844,-3.022,-2.643,2.24,0.839
4.369,3.688,-1.56,-3.33,2.099,2.012
5.76,9.457,-1.88,-3.111,0.701,2.877
3.719,12.058,-4.045,-2.539,-0.87,2.318
3.101,15.749,-4.966,-1.757,-0.29,1.265
4.098,16.79,-6.189,-0.247,-0.627,-0.218
3.319,8.428,-6.802,1.148,-1.371,-1.59
0.393,6.061,-6.92,1.508,-1.589,-2.557
-0.233,5.092,-6.487,1.608,-0.416,-2.123
0.232,0.99,-6.07,1.821,-1.248,-1.643
-1.951,-3.237,-6.273,1.751,-1.937,-1.258
-3.246,-5.821,-5.989,1.701,-1.416,-0.656
-2.294,-8.183,-5.751,1.641,-0.507,0.083
-1.063,-9.202,-5.098,1.549,-0.474,0.49
-1.249,-10.407,-5.163,1.315,-0.299,0.804
-1.641,-11.713,-5.032,1.073,0.021,0.989
-1.89,-12.397,-5.149,0.738,0.193,0.841
-2.166,-12.435,-5.244,0.373,0.328,0.427
-2.107,-12.346,-5.123,0.044,0.345,-0.042
-1.836,-11.797,-5.033,-0.263,0.189,-0.592
-1.231,-10.833,-5.147,-0.55,0.173,-1.12
-0.033,-10.564,-5.104,-0.769,0.209,-1.429
0.965,-11.22,-4.6,-0.931,0.217,-1.473
1.638,-11.79,-4.086,-1.119,0.406,-1.201
1.876,-12.349,-3.774,-1.489,0.556,-0.573
1.8,-10.771,-3.479,-2.106,0.947,0.532
3.165,-4.646,-2.016,-3.41,1.761,2.293
2.784,2.928,-2.973,-3.224,1.212,3.148
1.258,4.104,-4.39,-2.862,0.337,2.609
1.051,9.219,-5.445,-2.142,0.303,1.761
2.237,11.413,-5.726,-1.031,0.203,0.521
1.735,8.405,-7.399,0.727,-0.688,-1.214
2.047,4.907,-7.152,1.035,-0.794,-2.172
1.924,6.658,-7.001,1.326,-1.06,-2.014
-0.238,3.996,-7.114,1.507,-1.398,-1.771
-2.107,1.323,-7.191,1.68,-2.092,-1.612
-4.171,-1.331,-7.089,1.916,-2.458,-1.581
-5.03,-4.638,-6.371,2.109,-1.934,-1.43
-3.56,-7.603,-5.311,2.009,-0.973,-1.111
-1.16,-10.207,-4.25,1.597,-0.749,-0.808
-0.574,-11.715,-4.173,0.999,-0.267,-0.357
-0.087,-12.222,-4.191,0.436,0.1,0.007
-0.317,-12.303,-4.688,-0.005,0.19,0.162
-0.732,-11.663,-4.863,-0.274,0.349,0.166
-0.688,-10.652,-5.175,-0.365,0.424,0.157
-0.374,-11.257,-5.442,-0.511,0.508,0.052
0.15,-12.146,-5.688,-0.801,0.875,-0.109
0.79,-13.437,-5.504,-1.162,1.226,-0.268
1.008,-14.534,-4.986,-1.525,1.565,-0.28
0.829,-14.291,-4.331,-2.019,2.033,0.117
1.4,-9.752,-3.057,-2.875,2.555,1.139
2.686,2.347,-2.531,-3.037,2.357,1.825
4.218,6.87,-2.586,-2.676,0.946,2.291
3.572,10.501,-4.037,-2.117,-0.694,1.785
3.068,14.283,-4.964,-1.424,-0.954,0.824
3.03,14.624,-6.205,-0.086,-1.619,-0.675
1.219,6.363,-6.975,0.703,-2.352,-1.871
-1.851,4.978,-7.656,0.97,-2.065,-2.725
-2.681,3.973,-7.262,1.091,-1.007,-2.593
-2.525,0.204,-6.893,1.374,-1.511,-2.375
-3.557,-2.913,-6.859,1.481,-1.849,-2.134
-3.479,-5.512,-6.26,1.591,-1.396,-1.616
-1.902,-7.66,-5.563,1.6,-0.769,-1.002
-0.888,-9.964,-5.339,1.424,-0.684,-0.51
-0.437,-11.353,-5.774,1.028,-0.452,-0.056
-1.13,-12.234,-6.022,0.62,-0.092,0.234
-1.194,-12.208,-6.063,0.157,0.372,0.296
-1.127,-11.749,-6.071,-0.272,0.635,0.202
-0.624,-10.869,-5.96,-0.554,0.752,0.136
-0.663,-11.192,-5.641,-0.817,1.011,-0.005
0.218,-12.517,-5.346,-1.099,1.282,-0.351
0.781,-13.556,-4.998,-1.371,1.514,-0.611
0.867,-13.631,-4.81,-1.609,1.785,-0.524
1.313,-12.178,-4.217,-2.024,2.132,0.11
3.381,-5.102,-3.071,-2.956,2.387,1.37
4.425,4.637,-2.775,-3.123,1.458,2.29
4.111,9.002,-4.185,-2.657,0.057,2.739
3.522,11.912,-5.449,-2.057,-0.396,2.132
3.279,15.627,-5.976,-1.201,-0.544,0.955
1.562,12.799,-7.066,0.478,-1.251,-0.746
-0.141,7.093,-7.353,1.349,-1.325,-1.922
-1.327,5.102,-6.332,1.562,-0.947,-2.491
-1.402,2.981,-5.175,1.662,-1.242,-2.211
-2.096,-2.498,-5.33,1.769,-2.047,-1.862
-2.731,-5.69,-5.442,1.738,-2.071,-1.449
-1.836,-8.741,-5.784,1.784,-1.447,-0.931
-0.23,-10.861,-5.832,1.744,-1.014,-0.475
-0.211,-12.566,-5.964,1.514,-0.608,-0.083
-0.586,-12.895,-5.784,1.113,-0.204,0.154
-1.349,-13.042,-5.447,0.579,0.127,0.182
-1.536,-12.402,-4.811,0.037,0.279,0.075
-1.289,-11.792,-4.969,-0.365,0.362,-0.06
-0.774,-12.303,-5.356,-0.726,0.547,-0.245
0.131,-12.941,-5.385,-1.078,1.074,-0.441
1.246,-13.619,-5.161,-1.38,1.414,-0.511
1.28,-13.906,-4.733,-1.693,1.757,-0.281
0.813,-12.506,-3.806,-2.191,2.22,0.285
1.327,-7.138,-2.891,-2.932,2.494,1.281
2.784,3.614,-2.619,-3.153,2.481,2.268
3.966,8.061,-3.134,-2.732,0.937,2.703
3.269,10.672,-4.803,-2.058,-0.37,2.012
3.278,13.672,-5.466,-1.266,-0.087,1.068
4.469,13.772,-5.915,0.117,-0.382,-0.278
3.518,7.253,-6.255,1.093,-1.603,-1.609
0.813,6.057,-6.733,1.434,-1.506,-2.478
0.311,5.052,-6.209,1.554,-0.929,-2.253
-0.113,1.634,-6.501,1.801,-1.919,-2.064
-2.078,-2.735,-6.634,1.875,-2.509,-1.816
-2.896,-5.936,-6.763,1.915,-2.116,-1.384
-1.7,-8.582,-6.198,1.898,-1.291,-0.853
-0.223,-10.162,-5.705,1.735,-1.037,-0.486
-0.115,-11.407,-5.047,1.424,-0.626,-0.12
-0.349,-11.34,-4.633,1.039,-0.343,0.183
-1.195,-11.812,-4.152,0.616,-0.011,0.308
-1.648,-11.608,-4.135,0.209,0.186,0.345
-2.033,-11.397,-4.043,-0.132,0.382,0.399
-1.949,-11.448,-4.714,-0.468,0.321,0.324
-1.932,-12.217,-5.427,-0.85,0.666,0.079
-1.025,-12.38,-5.707,-1.207,1.233,-0.204
-0.153,-12.99,-5.536,-1.45,1.718,-0.445
0.023,-13.619,-5.188,-1.63,1.987,-0.561
0.482,-12.766,-4.236,-1.896,2.422,-0.266
1.596,-9.336,-3.03,-2.446,2.644,0.699
4.62,3.281,-1.344,-3.327,2.502,2.034
6.042,8.751,-1.447,-3.11,0.936,2.672
5.15,10.93,-2.797,-2.623,-0.62,2.134
4.337,15.062,-3.561,-1.985,-0.581,1.204
5.248,16.949,-4.435,-0.799,-1.115,-0.173
1.978,7.764,-6.374,0.685,-2.414,-2.006
-1.538,5.11,-7.36,0.995,-2.089,-3.051
-1.644,4.913,-6.844,1.104,-1.061,-2.907
-1.285,0.851,-7.225,1.306,-2.039,-2.672
-3.421,-3.138,-7.29,1.427,-2.415,-2.379
-3.318,-5.947,-7.396,1.595,-1.803,-1.738
-1.843,-8.528,-6.706,1.764,-0.96,-1.107
-0.121,-10.07,-6.213,1.682,-0.772,-0.51
-0.879,-10.837,-5.587,1.407,-0.329,0.086
-1.312,-11.185,-5.3,0.993,0.108,0.476
-2.371,-11.051,-4.703,0.542,0.558,0.652
-2.152,-10.009,-4.157,0.054,0.649,0.784
-2.935,-9.869,-4.082,-0.26,0.613,0.875
-2.839,-9.979,-5.086,-0.467,0.633,0.79
-2.465,-11.06,-6.243,-0.656,0.974,0.426
-1.036,-11.967,-6.443,-0.827,1.312,-0.073
-0.491,-12.986,-6.33,-0.973,1.499,-0.573
-0.44,-12.926,-6.031,-1.165,1.888,-0.948
0.811,-11.872,-4.959,-1.482,2.346,-0.836
2.481,-8.857,-3.443,-2.106,2.416,0.086
3.564,-0.384,-2.923,-3.204,2.325,1.597
4.373,6.876,-3.162,-3.145,1.475,2.574
4.365,8.615,-4.299,-2.769,-0.317,2.429
2.668,12.268,-5.6,-2.207,-0.997,1.402
2.2,15.823,-6.098,-1.048,-0.914,0.189
1.969,11.347,-6.525,0.743,-1.705,-1.497
-0.697,6.217,-7.123,1.266,-2.417,-2.729
-2.59,5.665,-6.582,1.499,-1.284,-2.85
-1.562,1.965,-5.572,1.755,-1.101,-2.318
-2.09,-3.738,-5.548,1.811,-2.039,-1.982
-3.324,-6.768,-5.933,1.692,-1.892,-1.505
-2.001,-8.567,-5.651,1.671,-0.621,-0.874
0.359,-10.159,-5.198,1.591,-0.287,-0.419
0.18,-11.273,-5.045,1.294,-0.387,-0.081
-0.613,-11.44,-5.127,0.893,0.04,0.145
-0.962,-11.647,-4.599,0.462,0.375,0.262
-1.055,-11.017,-4.08,-0.021,0.394,0.273
-1.156,-10.287,-4.095,-0.455,0.41,0.322
-1.271,-10.538,-4.536,-0.767,0.428,0.318
-1.64,-11.517,-4.893,-1.051,0.419,0.04
-2.077,-11.805,-5.76,-1.287,0.838,-0.41
-0.907,-12.958,-6.408,-1.371,1.4,-0.788
-0.331,-14.041,-6.37,-1.489,1.566,-0.9
0.538,-12.125,-5.496,-1.826,1.818,-0.52
2.353,-7.6,-4.063,-2.475,2.285,0.73
5.149,3.964,-2.347,-3.265,1.855,2.375
4.982,9.496,-1.736,-2.96,0.273,3.192
2.783,11.301,-3.438,-2.511,-0.769,2.364
2.156,15.49,-4.142,-1.773,-0.249,1.237
3.323,16.763,-4.916,-0.386,-0.626,-0.258
1.678,7.976,-6.159,1.068,-1.784,-2.078
-1.704,4.947,-7.037,1.344,-1.823,-3.155
-1.592,5.002,-5.691,1.579,-1.051,-2.662
-1.43,-0.016,-5.902,1.857,-2.011,-2.306
-3.34,-4.765,-6.068,1.876,-2.346,-2.05
-3.477,-7.47,-6.139,1.899,-1.405,-1.52
-0.112,-10.077,-5.99,1.669,-0.331,-0.92
1.193,-11.43,-5.984,1.419,-0.186,-0.498
1.109,-11.6,-5.17,1.105,-0.03,-0.048
-0.0,-11.101,-4.576,0.717,0.182,0.229
-0.324,-10.762,-3.557,0.344,0.335,0.393
-1.634,-9.555,-2.933,0.181,0.089,0.538
-2.075,-10.071,-3.559,-0.041,-0.027,0.646
-2.75,-11.118,-5.025,-0.329,0.055,0.533
-2.098,-12.617,-5.931,-0.751,0.523,0.332
-1.575,-13.806,-6.333,-1.153,1.144,-0.022
-0.759,-15.27,-5.938,-1.52,1.655,-0.343
-0.775,-14.422,-4.518,-1.96,2.105,-0.426
0.161,-11.777,-2.855,-2.527,2.692,0.08
1.661,-5.084,-1.739,-3.225,2.853,1.229
2.989,2.754,-2.005,-3.157,1.801,2.181
2.9,8.187,-2.892,-2.69,0.435,2.404
2.964,10.241,-4.948,-2.032,-0.115,1.859
3.713,12.966,-6.114,-1.083,-0.173,0.914
3.807,11.693,-7.243,0.344,-0.959,-0.62
2.112,8.139,-7.832,1.015,-1.275,-1.973
0.58,6.033,-8.062,1.311,-1.012,-2.629
-0.048,4.989,-6.855,1.56,-1.166,-2.643
-0.78,0.711,-6.306,1.714,-2.079,-2.606
-1.812,-3.339,-5.999,1.641,-2.349,-2.329
-1.393,-6.422,-5.473,1.676,-1.9,-1.754
0.565,-9.246,-5.584,1.66,-1.389,-1.115
0.956,-11.32,-6.259,1.564,-1.311,-0.549
0.072,-12.173,-6.361,1.346,-0.812,-0.092
-1.075,-12.379,-6.092,0.953,-0.299,0.136
-1.975,-12.247,-5.817,0.423,0.222,0.182
-2.618,-11.124,-5.086,-0.029,0.682,0.16
-1.753,-9.448,-4.453,-0.376,1.136,0.21
-0.433,-8.726,-4.788,-0.757,1.196,0.353
0.124,-10.544,-6.305,-1.13,1.301,0.431
0.24,-12.37,-6.936,-1.417,1.701,0.226
0.999,-13.589,-6.241,-1.775,2.14,0.039
0.995,-13.65,-5.271,-2.254,2.346,0.155
1.255,-10.742,-3.967,-3.003,2.842,0.838
4.221,2.424,-1.325,-3.358,2.719,1.697
6.378,9.77,-0.624,-2.859,0.981,2.355
4.796,12.682,-2.385,-2.114,-1.0,1.848
3.718,17.03,-3.153,-1.489,-0.586,1.039
5.002,18.608,-3.719,-0.082,-0.956,-0.298
2.927,9.618,-5.475,1.135,-2.087,-1.796
-0.765,5.35,-6.732,1.418,-1.8,-2.612
-0.503,4.057,-6.37,1.587,-0.535,-2.112
0.549,-0.571,-6.7,2.039,-1.685,-1.7
-1.723,-4.881,-7.028,2.129,-2.415,-1.325
-2.932,-7.169,-7.146,2.116,-1.693,-0.808
-0.945,-8.782,-6.289,2.055,-0.6,-0.278
-0.257,-10.201,-5.735,1.793,-0.579,0.058
-1.087,-11.441,-5.292,1.418,-0.185,0.342
-1.242,-11.981,-5.055,0.96,0.267,0.396
-0.551,-11.788,-4.546,0.517,0.819,0.432
-0.359,-11.601,-4.156,0.134,0.753,0.327
-0.373,-11.567,-3.987,-0.226,0.756,0.156
-0.072,-11.96,-4.72,-0.619,0.642,-0.203
0.51,-13.45,-5.012,-0.944,0.974,-0.621
1.363,-15.099,-4.189,-1.192,1.13,-1.0
1.281,-15.891,-3.506,-1.569,1.059,-1.118
0.809,-14.671,-2.732,-2.118,1.409,-0.673
1.78,-9.199,-0.801,-3.246,2.257,0.658
3.592,1.619,-0.71,-3.279,1.919,1.657
4.101,6.36,-1.378,-2.962,-0.212,2.021
1.63,9.937,-3.511,-2.424,-0.821,1.252
2.466,14.873,-4.25,-1.637,-0.296,0.334
3.222,13.916,-5.812,0.07,-1.479,-1.389
0.453,7.46,-6.69,0.545,-2.623,-2.62
-2.871,6.071,-7.914,0.753,-1.292,-2.996
-1.136,4.183,-7.485,1.047,-0.959,-2.428
-2.056,-1.197,-8.142,1.461,-2.082,-2.145
-3.824,-4.36,-8.326,1.586,-2.067,-1.721
-3.576,-6.667,-7.783,1.861,-0.891,-1.12
-1.049,-8.635,-6.759,1.918,-0.358,-0.654
-0.854,-9.862,-6.066,1.728,-0.128,-0.27
-0.472,-10.462,-5.552,1.366,0.269,0.064
-1.047,-10.542,-4.935,1.004,0.611,0.283
-0.745,-10.614,-3.936,0.546,0.716,0.352
-1.162,-9.808,-3.398,0.146,0.652,0.402
-0.615,-8.731,-3.175,-0.17,0.578,0.569
-0.968,-8.99,-3.958,-0.391,0.265,0.822
-1.658,-10.354,-5.903,-0.649,0.068,0.779
-2.756,-12.061,-7.658,-0.925,0.398,0.385
-2.625,-14.014,-7.783,-1.108,1.154,-0.203
-2.47,-16.029,-6.89,-1.375,1.514,-0.744
-2.384,-14.983,-5.174,-1.816,2.079,-0.877
-0.329,-10.687,-2.086,-2.666,2.955,0.06
3.429,2.138,-0.04,-3.015,2.893,1.34
5.364,8.31,-0.075,-2.762,1.125,2.226
4.495,11.704,-1.985,-2.161,-0.542,1.897
4.111,15.588,-3.309,-1.537,-0.404,1.088
4.929,17.141,-4.578,-0.252,-0.814,-0.294
2.726,8.841,-6.077,0.589,-1.587,-1.781
0.118,6.726,-7.428,0.891,-1.295,-2.705
-0.725,6.045,-7.491,1.072,-0.346,-2.371
0.172,1.832,-7.404,1.436,-1.151,-2.027
-1.716,-2.239,-7.888,1.637,-2.148,-1.82
-1.902,-4.977,-7.927,1.925,-1.967,-1.322
-1.164,-7.999,-7.468,2.177,-1.266,-0.785
0.488,-9.798,-6.699,2.182,-0.944,-0.425
-0.158,-10.508,-6.425,1.957,-0.596,-0.105
-0.158,-11.194,-6.039,1.564,0.029,0.16
-0.757,-11.272,-5.078,1.045,0.293,0.206
-0.875,-10.659,-3.832,0.436,0.487,0.216
-1.005,-9.539,-3.103,-0.07,0.557,0.269
-0.87,-8.481,-2.717,-0.419,0.507,0.479
-0.854,-9.219,-3.49,-0.606,0.371,0.781
-1.756,-12.432,-5.585,-0.844,0.252,0.714
-2.472,-15.059,-6.939,-1.072,0.873,0.281
-1.792,-17.731,-6.21,-1.348,1.372,-0.111
-2.008,-18.011,-4.955,-1.891,1.807,-0.16
-0.795,-13.176,-2.475,-3.109,2.996,0.606
2.324,-0.844,-0.62,-3.245,3.413,1.401
4.885,5.669,0.725,-2.848,1.447,2.081
3.121,9.522,-1.14,-2.258,-0.404,1.593
3.067,14.109,-2.959,-1.529,-0.366,0.737
3.65,14.989,-4.867,0.165,-1.285,-0.938
2.109,8.558,-5.817,0.89,-2.472,-2.352
-1.043,6.41,-7.567,1.098,-1.975,-3.162
-0.536,5.79,-8.032,1.259,-0.96,-2.714
-0.828,1.301,-8.46,1.687,-1.815,-2.373
-2.999,-3.107,-8.809,1.821,-2.201,-2.056
-3.297,-5.82,-7.757,1.96,-1.394,-1.532
-1.802,-7.656,-6.465,1.996,-0.635,-1.04
-0.647,-9.123,-5.03,1.824,-0.143,-0.592
0.315,-9.587,-4.073,1.486,0.197,-0.089
0.52,-10.32,-3.177,1.136,0.439,0.412
0.063,-10.963,-3.187,0.683,0.405,0.789
-0.948,-12.347,-3.437,0.245,0.346,0.949
-1.82,-13.377,-3.926,-0.156,0.375,0.751
-1.701,-14.298,-3.962,-0.566,0.76,0.362
-0.606,-14.679,-3.844,-1.028,1.156,-0.047
0.19,-15.139,-3.8,-1.409,1.518,-0.316
1.083,-14.766,-3.311,-1.723,1.893,-0.307
1.44,-12.678,-2.391,-2.228,2.035,0.319
1.815,-6.836,-1.825,-3.254,2.475,1.625
2.663,2.29,-2.671,-3.029,2.913,2.521
5.112,5.374,-2.118,-2.563,1.161,2.495
3.596,8.809,-2.606,-2.078,-0.947,1.369
2.698,13.124,-3.743,-1.491,-1.052,0.17
2.837,12.374,-4.921,0.028,-1.803,-1.602
1.212,6.661,-4.998,0.283,-3.698,-3.089
-4.659,6.042,-7.027,0.27,-3.043,-3.655
-4.664,4.704,-7.739,0.484,-1.135,-3.163
-3.918,0.178,-7.943,1.028,-1.325,-2.881
-4.797,-3.622,-7.632,1.254,-1.577,-2.486
-4.677,-6.353,-7.583,1.43,-0.534,-1.877
-1.052,-7.743,-6.772,1.578,0.525,-1.308
0.898,-8.981,-5.597,1.548,0.606,-0.766
0.964,-9.951,-4.016,1.35,0.536,-0.276
0.295,-10.369,-3.464,1.016,0.499,0.064
-0.1,-10.417,-2.966,0.744,0.438,0.291
-0.8,-10.541,-2.56,0.482,0.199,0.554
-1.618,-12.037,-4.008,0.138,0.183,0.577
-1.518,-13.959,-4.896,-0.128,0.656,0.234
0.045,-15.127,-4.578,-0.459,1.237,-0.18
1.206,-15.556,-3.629,-0.918,1.611,-0.391
1.671,-15.634,-2.697,-1.47,1.832,-0.374
1.576,-13.174,-1.088,-2.117,2.107,0.13
2.363,-7.831,-0.545,-3.125,2.665,1.406
4.97,4.907,-1.046,-3.839,2.376,2.506
4.912,9.256,-2.233,-3.409,0.77,2.933
3.812,11.234,-4.108,-2.852,-0.396,2.04
3.367,15.071,-5.369,-2.099,-0.906,0.741
2.86,16.01,-6.447,-0.856,-1.788,-0.883
-0.709,7.616,-7.29,0.248,-2.202,-2.425
-2.217,5.947,-8.059,0.379,-1.389,-3.328
-2.481,5.485,-7.933,0.711,-0.661,-3.059
-1.767,1.036,-7.833,1.1,-0.987,-2.654
-2.692,-2.895,-7.706,1.402,-1.506,-2.373
-2.469,-6.431,-7.764,1.631,-1.232,-1.833
-1.305,-9.163,-7.537,1.726,-0.666,-1.432
0.155,-10.984,-7.142,1.551,-0.295,-1.067
-0.019,-11.52,-6.42,1.25,0.222,-0.707
0.673,-11.217,-5.529,0.792,0.793,-0.403
0.658,-10.091,-4.068,0.393,0.989,-0.165
0.706,-8.507,-2.388,0.085,1.058,0.135
0.499,-7.307,-1.066,-0.101,0.84,0.445
0.574,-7.736,-0.918,-0.306,0.343,0.701
0.152,-9.454,-3.489,-0.431,-0.193,0.831
-0.125,-11.369,-7.058,-0.533,-0.199,0.769
-0.585,-13.801,-8.778,-0.644,0.014,0.377
-0.322,-15.68,-8.859,-0.874,0.505,-0.173
0.371,-15.659,-8.147,-1.195,1.13,-0.504
0.483,-13.799,-5.282,-1.666,1.742,-0.299
0.828,-10.055,-1.57,-2.41,2.14,0.545
2.599,-0.572,1.228,-3.778,2.539,2.164
4.099,7.251,0.176,-3.471,1.898,2.962
4.733,8.611,-1.587,-2.95,0.058,2.338
2.849,13.333,-3.999,-2.233,-0.471,1.043
3.584,15.767,-5.033,-0.944,-0.305,-0.124
3.403,10.029,-7.126,0.994,-1.315,-1.891
0.667,4.847,-7.033,1.179,-2.608,-2.813
-3.327,4.545,-6.997,1.316,-1.698,-2.466
-2.019,-0.596,-5.964,1.614,-1.531,-1.902
-2.846,-5.169,-6.34,1.605,-2.613,-2.005
-4.347,-6.649,-6.505,1.693,-2.476,-1.903
-2.882,-7.827,-5.922,1.885,-1.044,-1.517
0.158,-8.749,-5.158,1.797,-0.57,-1.087
0.113,-9.964,-5.376,1.403,-0.482,-0.498
-0.976,-11.204,-5.422,1.038,0.04,0.034
-1.9,-12.347,-4.969,0.517,0.506,0.315
-2.678,-12.526,-4.624,-0.019,0.981,0.281
-2.26,-12.741,-3.787,-0.345,1.277,0.129
-0.946,-11.826,-3.419,-0.638,1.324,-0.196
1.151,-11.619,-3.502,-1.035,1.558,-0.396
3.353,-12.075,-3.842,-1.403,1.657,-0.401
4.055,-13.214,-4.007,-1.796,1.356,-0.257
3.365,-12.313,-4.259,-2.295,1.584,0.154
3.542,-9.832,-3.398,-2.978,2.234,1.122
5.054,1.079,-1.45,-4.125,2.32,2.546
4.916,7.847,-0.649,-3.782,0.823,3.02
3.205,9.566,-2.362,-3.323,-0.401,2.148
2.583,14.759,-3.777,-2.569,-0.371,1.075
3.39,17.323,-4.546,-1.319,-0.708,-0.264
1.579,10.351,-6.469,0.415,-1.753,-2.274
-0.616,7.083,-8.427,0.693,-1.438,-3.286
-0.966,8.413,-7.836,1.141,-0.614,-2.862
-0.77,3.207,-7.861,1.599,-1.084,-2.45
-2.144,-1.143,-7.836,1.881,-1.589,-2.181
-2.488,-4.263,-7.722,2.177,-1.216,-1.619
-0.949,-7.001,-6.049,2.382,-0.322,-0.993
1.268,-9.008,-5.559,2.213,-0.137,-0.427
1.292,-9.907,-4.822,1.789,-0.174,0.133
0.093,-10.625,-4.866,1.285,-0.072,0.456
-0.863,-11.135,-4.318,0.789,0.337,0.585
-1.166,-10.847,-4.338,0.306,0.302,0.518
-1.779,-10.593,-3.867,-0.018,0.447,0.403
-1.284,-10.338,-3.971,-0.273,0.371,0.215
-0.94,-11.188,-4.773,-0.535,0.414,-0.007
-0.497,-11.528,-5.731,-0.848,0.574,-0.242
-0.084,-12.386,-6.202,-1.131,0.922,-0.455
0.228,-13.483,-6.413,-1.374,1.275,-0.624
0.684,-13.601,-5.38,-1.741,1.736,-0.502
1.667,-10.914,-3.531,-2.396,2.064,0.292
3.284,-2.554,-0.81,-3.677,2.145,1.873
3.652,5.277,-0.469,-3.39,1.64,2.753
4.353,6.904,-1.271,-3.005,-0.241,2.287
2.221,11.848,-2.845,-2.473,-1.516,1.035
1.793,16.034,-3.635,-1.415,-1.591,-0.312
0.852,11.115,-5.683,0.43,-2.285,-2.361
-1.342,5.415,-5.922,0.658,-3.239,-3.61
-4.334,5.397,-6.18,0.878,-2.095,-3.424
-3.274,0.814,-6.03,1.285,-1.119,-2.687
-3.279,-5.046,-6.8,1.416,-1.454,-2.278
-4.145,-7.865,-7.295,1.367,-1.14,-1.723
-2.547,-9.131,-7.549,1.327,-0.004,-1.188
-0.723,-10.03,-6.655,1.21,0.402,-0.806
-0.394,-10.117,-5.92,0.971,0.448,-0.405
-0.912,-10.156,-4.989,0.736,0.575,-0.094
-0.796,-9.967,-4.045,0.521,0.638,0.087
-0.89,-10.189,-3.53,0.318,0.6,0.224
-1.03,-9.687,-3.622,0.051,0.478,0.293
-0.955,-9.655,-4.33,-0.229,0.411,0.348
-0.969,-10.009,-5.573,-0.461,0.355,0.372
-1.083,-11.213,-6.671,-0.687,0.607,0.221
-0.934,-12.026,-6.99,-0.888,1.094,-0.046
0.267,-13.488,-6.494,-1.09,1.589,-0.276
1.019,-14.147,-5.464,-1.565,1.746,-0.336
1.953,-12.374,-3.909,-2.234,2.239,0.271
3.554,-6.471,-1.399,-3.331,2.568,1.733
3.501,3.447,-1.593,-3.068,1.958,2.694
3.705,5.115,-2.415,-2.695,0.01,2.544
1.516,10.085,-3.854,-2.114,-1.172,1.444
1.204,14.864,-4.654,-1.082,-1.272,0.116
0.264,12.696,-6.922,0.602,-2.049,-1.812
-1.078,5.189,-7.59,0.874,-2.775,-3.188
-3.85,4.785,-8.596,1.068,-1.664,-3.391
-2.672,1.189,-8.8,1.384,-0.453,-2.854
-1.593,-4.379,-9.782,1.525,-0.626,-2.575
-0.828,-6.376,-9.196,1.546,-0.55,-2.092
0.671,-7.626,-7.418,1.521,0.112,-1.429
2.432,-7.538,-4.945,1.351,0.394,-0.766
3.185,-7.625,-3.406,1.046,-0.148,-0.05
1.354,-8.076,-2.203,0.835,-0.716,0.574
-0.584,-9.203,-2.728,0.609,-0.726,0.931
-1.819,-10.112,-4.155,0.412,-0.601,1.007
-2.513,-10.878,-5.568,0.253,-0.252,0.932
-3.287,-12.105,-6.842,0.083,0.4,0.683
-2.837,-13.597,-6.747,-0.336,1.317,0.35
-1.541,-13.871,-6.078,-0.864,1.734,-0.085
0.035,-13.949,-4.527,-1.318,2.224,-0.323
1.292,-13.687,-3.256,-1.738,2.222,-0.311
1.959,-12.016,-1.724,-2.26,2.123,0.139
3.02,-7.563,-0.729,-3.015,1.971,1.088
4.419,3.752,0.218,-3.806,1.734,2.391
4.845,9.352,-0.752,-3.401,0.626,2.879
3.734,11.607,-2.866,-2.896,-0.443,2.199
3.428,15.939,-4.238,-2.083,-0.372,1.034
4.461,17.827,-5.482,-0.601,-1.033,-0.365
2.462,10.264,-6.966,1.018,-2.281,-2.116
-1.241,7.483,-7.481,1.473,-2.617,-3.044
-2.697,6.333,-6.662,1.969,-1.897,-2.859
-3.114,1.111,-6.224,2.391,-2.195,-2.453
-5.168,-4.07,-6.418,2.416,-1.94,-2.176
-4.758,-7.688,-6.087,2.262,-0.733,-1.699
-2.112,-10.001,-5.464,1.909,0.49,-1.228
0.309,-10.594,-4.577,1.367,0.662,-0.85
0.714,-10.026,-3.883,0.746,0.535,-0.569
0.995,-9.38,-3.132,0.233,0.451,-0.258
0.034,-8.54,-3.159,-0.053,0.075,0.045
-0.719,-8.607,-3.394,-0.122,-0.285,0.245
-2.151,-8.974,-4.405,-0.129,-0.492,0.308
-3.182,-9.527,-5.043,-0.181,0.031,0.39
-3.431,-9.837,-5.423,-0.377,0.507,0.32
-2.522,-9.938,-5.414,-0.676,0.982,0.201
-1.601,-10.125,-5.255,-0.981,1.179,0.136
-0.36,-10.885,-4.955,-1.205,1.583,0.06
1.596,-12.271,-4.98,-1.371,1.523,-0.205
2.605,-13.812,-4.57,-1.494,1.377,-0.401
3.082,-14.265,-3.554,-1.804,1.455,-0.195
3.874,-11.428,-2.317,-2.694,1.783,0.78
5.898,3.563,-0.99,-3.318,1.563,1.788
6.78,9.392,-0.311,-2.922,0.142,2.319
5.546,12.985,-1.604,-2.423,-1.561,1.558
3.552,19.901,-2.755,-1.672,-1.817,0.55
2.254,21.141,-4.018,0.133,-1.844,-0.938
-0.27,9.133,-5.75,1.557,-1.982,-2.212
-2.96,5.146,-6.41,1.899,-1.509,-2.734
-3.708,2.998,-6.545,2.073,-0.248,-1.954
-2.593,-3.937,-6.909,2.238,-0.376,-1.368
-1.765,-7.871,-8.291,1.739,-0.994,-1.202
-1.678,-9.819,-8.289,1.272,-0.821,-1.244
0.617,-9.91,-7.903,0.877,0.147,-1.178
2.133,-10.19,-6.524,0.568,0.235,-1.062
3.273,-10.098,-6.338,0.152,0.553,-0.796
3.682,-10.509,-5.121,-0.095,0.963,-0.31
4.298,-11.454,-4.095,-0.247,0.98,0.183
2.96,-11.185,-4.005,-0.493,0.656,0.57
2.744,-8.942,-4.289,-0.755,0.951,1.089
0.938,-5.083,-4.122,-0.804,0.514,1.323
-1.913,-0.658,-4.155,-0.575,-0.042,1.198
-4.129,2.356,-5.01,-0.286,-0.126,1.109
-5.105,3.429,-5.91,-0.052,-0.206,1.264
-7.113,1.303,-7.573,0.176,-0.55,1.448
-7.085,-5.369,-9.905,0.071,-0.477,1.821
-7.301,-13.283,-12.466,-0.392,0.185,1.929
-7.018,-18.549,-12.645,-0.875,0.716,1.083
-7.456,-22.266,-11.144,-1.253,1.293,-0.503
-6.36,-23.987,-7.756,-1.622,2.232,-2.084
-5.969,-20.642,-3.073,-1.927,2.933,-2.756
-0.504,-3.758,3.408,-3.127,3.071,-1.177
-0.037,9.747,5.747,-3.228,1.789,0.472
2.426,14.754,5.23,-2.67,0.066,0.928
2.538,22.842,2.961,-2.756,-0.538,0.788
6.12,27.815,-0.078,-2.048,-0.979,0.261
2.533,18.818,-5.483,-0.516,-2.513,-2.007
0.612,11.718,-8.973,0.223,-2.515,-3.242
-2.199,10.211,-10.48,0.528,-1.472,-2.612
-2.814,4.162,-10.932,1.509,-1.943,-1.755
-7.035,-0.568,-10.538,1.779,-2.234,-1.476
-7.458,-3.554,-9.469,2.16,-0.882,-1.175
-4.505,-5.949,-7.643,2.161,0.171,-0.96
-2.716,-6.392,-6.209,1.896,0.632,-0.969
-1.078,-5.296,-4.915,1.557,1.125,-0.846
0.567,-4.595,-4.16,1.268,1.265,-0.664
1.365,-4.214,-3.553,1.068,0.73,-0.432
0.772,-4.285,-3.805,0.917,0.102,-0.231
0.024,-5.208,-5.089,0.801,-0.473,-0.027
-1.344,-6.97,-6.625,0.676,-0.715,0.216
-2.797,-8.974,-7.474,0.488,-0.522,0.44
-3.291,-10.337,-7.256,0.278,0.094,0.528
-2.567,-11.084,-6.392,0.017,0.457,0.475
-2.104,-10.378,-4.967,-0.213,0.747,0.403
-1.321,-8.789,-3.455,-0.33,0.884,0.326
-0.862,-7.028,-3.029,-0.316,0.611,0.253
-0.976,-7.186,-4.248,-0.294,0.281,0.29
-1.221,-8.625,-6.422,-0.379,0.304,0.318
-1.027,-10.99,-7.777,-0.531,0.611,0.191
-0.315,-13.658,-7.884,-0.788,0.943,-0.151
0.674,-15.526,-7.012,-1.158,1.39,-0.477
1.537,-15.002,-5.267,-1.658,1.615,-0.466
2.099,-11.713,-2.849,-2.293,1.95,0.292
4.284,-0.278,-0.365,-3.484,2.168,1.64
5.61,7.312,-0.26,-3.179,1.338,2.442
5.431,10.116,-2.062,-2.62,-0.372,2.048
3.806,15.191,-3.547,-1.925,-0.152,1.195
5.312,18.204,-4.439,-0.603,-0.284,0.09
3.688,10.379,-6.523,1.257,-1.899,-1.64
-0.145,5.859,-8.127,1.65,-2.4,-2.576
-1.444,4.728,-7.787,1.892,-0.919,-2.076
-0.061,-0.822,-7.412,2.196,-1.34,-1.552
-1.865,-5.587,-7.591,2.084,-1.707,-1.333
-1.565,-8.141,-6.968,1.945,-0.803,-0.931
0.799,-9.426,-5.754,1.727,0.013,-0.506
2.152,-10.083,-4.845,1.37,-0.109,-0.275
1.687,-9.819,-4.269,0.89,-0.383,-0.014
0.392,-10.5,-4.006,0.421,-0.367,0.231
-1.132,-10.366,-4.159,0.071,-0.261,0.292
-1.547,-10.487,-4.417,-0.151,-0.204,0.174
-1.904,-10.372,-4.691,-0.274,-0.099,0.027
-1.518,-10.38,-4.842,-0.448,0.22,-0.051
-0.905,-10.44,-5.366,-0.657,0.351,-0.265
-0.02,-11.017,-5.734,-0.877,0.822,-0.396
1.213,-12.079,-5.417,-1.124,1.208,-0.52
2.041,-13.167,-4.891,-1.449,1.186,-0.606
2.536,-12.875,-4.025,-1.848,1.118,-0.394
3.541,-10.373,-2.785,-2.429,1.341,0.518
5.238,-2.085,-0.241,-3.837,1.359,2.098
4.542,6.037,-0.706,-3.429,0.953,2.806
4.781,7.808,-1.903,-2.948,-0.136,2.228
2.85,13.749,-3.212,-2.367,-1.004,0.978
2.156,16.068,-4.054,-0.972,-1.3,-0.348
-0.047,10.588,-6.987,1.085,-1.978,-2.209
-1.971,4.73,-7.6,1.382,-2.644,-3.078
-4.361,3.888,-7.941,1.763,-1.657,-2.688
-2.902,-2.236,-8.54,2.236,-0.663,-1.982
-2.384,-6.523,-8.946,2.068,-0.575,-1.767
-1.549,-7.912,-7.995,1.922,-0.295,-1.45
0.314,-8.701,-6.145,1.573,0.464,-1.147
1.68,-8.282,-4.369,1.041,0.297,-0.851
1.241,-8.175,-3.283,0.508,-0.104,-0.425
0.615,-8.444,-3.515,0.158,-0.518,-0.053
-0.927,-9.372,-4.056,0.01,-0.635,0.073
-1.376,-9.942,-5.062,-0.048,-0.45,0.146
-1.777,-10.017,-5.796,-0.025,-0.19,0.125
-1.516,-9.436,-5.897,-0.049,0.23,0.069
-1.239,-9.032,-5.201,-0.188,0.692,0.134
-0.22,-9.18,-5.504,-0.443,0.742,0.247
-0.449,-10.246,-6.319,-0.677,0.7,0.124
0.344,-11.687,-6.433,-0.923,1.037,-0.16
1.14,-13.024,-5.779,-1.218,1.17,-0.491
1.522,-13.239,-5.106,-1.594,1.126,-0.695
1.834,-11.648,-3.726,-2.069,1.404,-0.45
3.028,-7.384,-1.861,-2.933,1.697,0.686
5.081,6.294,-0.693,-3.372,1.359,1.945
5.58,11.122,-1.321,-2.888,-0.238,2.456
4.197,14.216,-3.03,-2.21,-1.352,1.596
3.353,20.075,-3.599,-1.319,-1.514,0.527
2.39,20.094,-4.391,0.373,-2.203,-1.033
-1.308,8.487,-5.471,1.553,-3.122,-2.431
-4.021,3.643,-6.146,1.802,-2.194,-2.955
-3.311,-0.37,-6.288,1.955,-1.229,-2.395
-1.915,-7.914,-8.099,1.916,-1.192,-2.069
-1.264,-10.808,-9.102,1.491,-0.829,-1.702
0.015,-11.243,-8.696,1.174,0.129,-1.343
1.053,-10.148,-7.203,0.894,0.543,-1.124
1.713,-8.581,-5.17,0.577,0.573,-0.745
1.195,-7.415,-3.197,0.453,0.151,-0.201
0.4,-7.382,-2.611,0.388,-0.244,0.223
-0.614,-8.278,-3.441,0.302,-0.479,0.49
-1.187,-8.586,-4.342,0.16,-0.316,0.636
-1.791,-8.877,-5.05,-0.024,0.04,0.703
-2.01,-9.011,-5.29,-0.283,0.468,0.771
-1.967,-10.135,-5.796,-0.545,0.681,0.815
-1.905,-10.895,-7.15,-0.77,0.847,0.585
-1.018,-12.499,-7.636,-0.965,1.124,0.208
-0.094,-14.238,-6.808,-1.201,1.304,-0.271
0.303,-14.713,-5.733,-1.578,1.377,-0.564
0.774,-12.72,-3.787,-2.127,1.741,-0.35
2.991,-7.793,-0.842,-3.1,2.388,1.003
4.799,4.166,0.591,-3.092,1.739,2.001
5.049,8.595,-0.608,-2.649,-0.573,2.373
2.284,12.176,-3.092,-2.045,-1.003,1.601
3.089,17.396,-3.759,-1.134,-0.815,0.671
1.551,16.299,-5.15,0.507,-2.493,-1.42
-2.622,7.031,-6.61,1.044,-3.064,-2.748
-4.441,4.38,-7.436,1.353,-1.416,-3.216
-2.088,0.334,-7.031,1.679,-1.325,-2.868
-2.448,-6.11,-8.548,1.774,-2.065,-2.825
-1.802,-8.716,-8.973,1.476,-1.191,-2.17
1.161,-9.461,-8.811,1.273,-0.411,-1.491
2.084,-9.416,-7.722,0.967,-0.249,-0.843
0.485,-7.961,-6.593,0.707,-0.183,-0.182
-1.948,-7.415,-5.32,0.545,0.028,0.199
-2.895,-7.407,-4.352,0.469,0.335,0.332
-3.087,-7.9,-3.726,0.41,0.349,0.359
-3.509,-7.973,-3.841,0.264,0.386,0.287
-2.27,-8.259,-3.916,-0.014,0.674,0.27
-1.009,-8.723,-4.053,-0.286,0.772,0.502
-1.2,-8.789,-4.789,-0.474,0.519,0.692
-1.686,-9.736,-6.167,-0.551,0.519,0.668
-1.617,-11.078,-7.397,-0.63,0.599,0.384
-1.472,-12.691,-7.869,-0.783,0.912,-0.153
0.255,-14.749,-7.029,-1.033,1.501,-0.735
2.009,-15.459,-5.336,-1.524,1.794,-0.808
3.402,-13.064,-2.534,-2.425,2.048,0.101
8.499,5.501,2.239,-3.995,2.21,2.036
9.019,12.818,4.053,-3.487,0.797,3.152
6.541,15.655,1.824,-3.048,-1.319,2.276
3.803,22.823,1.233,-2.569,-0.512,1.488
4.884,25.757,0.416,-1.054,-0.386,0.177
-0.244,10.384,-3.69,1.052,-1.559,-2.167
-2.068,5.635,-6.116,1.154,-1.244,-3.177
-1.928,5.219,-6.277,1.424,-0.032,-2.064
-0.218,-2.224,-8.867,1.88,-1.297,-1.561
-2.059,-6.982,-11.794,1.75,-1.89,-1.45
-1.919,-8.793,-12.074,1.795,-1.066,-1.03
-0.569,-9.65,-10.343,1.775,-0.121,-0.846
0.649,-9.224,-7.664,1.566,0.044,-0.839
0.68,-7.417,-4.589,1.163,0.318,-0.566
0.401,-6.346,-1.833,0.687,0.081,-0.055
-0.323,-6.548,-0.96,0.312,-0.37,0.436
-2.19,-7.797,-2.713,0.089,-1.135,0.595
-3.586,-8.825,-4.544,-0.036,-0.818,0.643
-3.97,-9.568,-5.577,-0.058,-0.477,0.502
-4.567,-10.001,-5.763,-0.11,0.134,0.272
-3.966,-9.716,-5.504,-0.264,0.769,0.065
-2.026,-9.705,-4.693,-0.393,1.124,0.146
-1.041,-11.492,-5.104,-0.599,0.873,0.09
-1.028,-13.391,-5.654,-0.913,0.945,-0.303
0.638,-15.319,-4.985,-1.306,1.351,-0.806
1.584,-15.861,-4.049,-1.858,1.422,-0.835
2.939,-13.356,-2.195,-2.832,2.0,0.038
5.217,4.536,1.013,-3.649,2.033,1.123
7.084,12.802,2.358,-3.263,0.755,2.109
5.06,17.311,0.768,-2.518,-1.362,1.657
3.184,23.353,-0.76,-1.872,-1.089,1.009
2.703,25.337,-2.769,-0.333,-1.475,-0.421
-0.051,10.69,-5.736,1.107,-2.323,-1.737
-3.394,4.925,-7.754,1.487,-1.998,-2.542
-3.078,1.911,-7.989,1.664,-0.41,-1.75
-1.585,-4.319,-8.224,2.082,-1.152,-1.346
-2.647,-8.296,-7.995,1.873,-1.531,-1.126
-1.739,-9.069,-7.529,1.614,-0.739,-0.866
0.507,-9.437,-6.529,1.304,-0.211,-0.602
1.335,-8.515,-6.072,1.022,-0.522,-0.392
0.082,-8.205,-5.516,0.824,-0.327,-0.057
-0.512,-8.263,-5.065,0.663,-0.029,0.249
-1.174,-9.005,-4.471,0.54,-0.053,0.382
-2.264,-9.595,-4.249,0.401,-0.099,0.403
-3.252,-10.044,-3.981,0.181,0.203,0.306
-2.807,-9.483,-3.887,-0.087,0.432,0.122
-2.114,-8.765,-3.761,-0.286,0.559,0.106
-1.99,-8.238,-3.685,-0.434,0.582,0.235
-1.904,-7.966,-4.299,-0.536,0.563,0.36
-1.504,-9.476,-5.979,-0.727,0.483,0.426
-1.971,-11.594,-7.435,-1.0,0.54,0.192
-2.157,-13.336,-7.522,-1.271,0.925,-0.413
-1.302,-14.42,-6.602,-1.597,1.387,-1.007
-0.613,-14.338,-4.897,-2.04,1.723,-1.103
1.004,-10.977,-1.998,-2.812,2.344,-0.194
5.921,6.824,2.331,-3.98,2.299,1.365
7.907,13.762,2.82,-3.624,0.38,2.406
5.111,15.875,0.405,-3.004,-1.602,1.749
4.255,21.466,-0.57,-2.425,-0.687,1.197
5.13,23.64,-1.59,-0.883,-1.06,-0.209
1.647,9.714,-5.241,0.978,-2.082,-2.121
-1.713,5.791,-7.099,1.328,-1.498,-3.153
-0.167,5.568,-6.683,1.501,0.042,-2.307
0.821,0.287,-7.305,1.964,-1.32,-2.019
-0.922,-3.916,-7.345,1.84,-2.072,-1.709
-1.618,-6.055,-7.052,1.82,-1.618,-1.168
0.252,-7.854,-6.489,1.742,-0.752,-0.587
1.132,-9.034,-6.199,1.583,-0.844,-0.223
0.09,-9.795,-6.232,1.277,-0.684,0.193
-1.549,-10.138,-6.537,0.976,-0.057,0.488
-1.937,-10.545,-5.913,0.639,0.475,0.51
-2.397,-10.44,-5.05,0.31,0.564,0.354
-2.375,-9.713,-4.14,0.057,0.871,0.228
-1.655,-8.548,-3.26,-0.156,0.925,0.128
-0.564,-7.292,-2.812,-0.339,0.794,0.259
-0.483,-6.25,-3.138,-0.435,0.522,0.73
-1.245,-6.062,-4.359,-0.529,0.125,1.271
-3.076,-8.282,-6.989,-0.789,-0.517,1.422
-5.57,-10.357,-9.015,-1.194,-0.15,1.015
-5.601,-12.201,-9.734,-1.499,0.71,-0.01
-4.094,-14.284,-8.999,-1.74,1.311,-1.007
-2.786,-14.323,-6.945,-2.096,1.926,-1.309
-0.324,-9.933,-3.427,-2.701,2.859,-0.418
3.96,4.315,0.216,-3.153,2.597,1.107
5.602,10.769,1.795,-2.639,0.868,2.301
3.636,13.818,0.253,-2.177,-0.873,1.905
2.87,18.782,-0.801,-1.711,-0.122,1.204
4.979,21.048,-1.333,-0.382,-0.091,-0.328
4.619,10.61,-3.699,0.725,-1.301,-2.183
1.494,7.806,-5.925,0.953,-1.735,-3.119
0.507,7.103,-6.169,1.288,-0.713,-2.293
0.538,1.852,-7.403,1.871,-1.985,-2.007
-2.73,-3.122,-9.037,1.999,-2.769,-1.848
-4.25,-5.537,-9.309,2.303,-1.738,-1.446
-2.368,-8.29,-7.877,2.326,-0.232,-1.107
-0.002,-9.533,-6.173,2.006,0.046,-0.952
0.567,-9.399,-4.67,1.493,0.136,-0.597
0.915,-8.966,-4.039,1.07,0.228,-0.135
0.584,-8.865,-3.396,0.751,0.198,0.292
-0.229,-8.851,-3.456,0.483,-0.011,0.624
-1.08,-8.462,-3.749,0.306,0.015,0.772
-1.564,-8.084,-4.212,0.146,0.111,0.907
-2.015,-8.197,-4.419,-0.081,0.286,1.138
-2.807,-8.622,-5.378,-0.263,0.314,1.296
-3.617,-8.7,-6.67,-0.307,0.45,1.222
-3.818,-9.675,-7.827,-0.366,0.625,0.868
-4.137,-10.934,-7.805,-0.52,0.933,0.246
-3.761,-12.03,-7.198,-0.78,1.302,-0.625
-2.033,-13.065,-5.551,-1.207,1.644,-1.358
-0.376,-13.288,-3.657,-1.845,1.767,-1.353
1.193,-10.465,-1.364,-2.762,2.023,-0.189
5.482,7.803,1.732,-3.888,1.636,1.663
6.172,13.081,1.31,-3.227,0.066,2.628
4.029,16.533,-1.057,-2.647,-0.355,1.86
5.623,22.313,-0.837,-1.792,0.306,1.321
6.954,22.84,-1.893,-0.46,-0.465,-0.035
3.469,8.628,-5.635,1.051,-1.215,-1.942
1.58,7.008,-6.779,1.057,-0.851,-2.83
1.841,6.483,-6.232,1.298,-0.97,-2.043
-0.617,2.003,-8.208,1.52,-2.123,-2.037
-3.032,0.046,-9.037,1.743,-2.079,-1.949
-3.268,-3.2,-8.795,2.097,-1.587,-1.728
-2.037,-6.494,-7.464,2.182,-0.699,-1.38
-0.488,-8.726,-6.424,2.022,-0.433,-1.028
0.28,-10.258,-5.309,1.639,-0.105,-0.558
0.705,-10.882,-4.493,1.116,0.085,-0.15
0.777,-10.756,-3.736,0.584,0.304,0.225
0.857,-9.864,-3.491,0.09,0.206,0.506
0.099,-8.557,-3.445,-0.238,0.152,0.795
-0.729,-7.285,-3.773,-0.451,0.127,1.146
-2.062,-6.697,-4.441,-0.55,0.104,1.473
-3.152,-7.16,-5.601,-0.537,-0.096,1.714
-4.858,-8.253,-7.443,-0.504,-0.218,1.589
-5.663,-10.262,-8.849,-0.669,0.209,1.029
-6.475,-11.945,-9.472,-0.828,0.683,0.03
-5.982,-13.434,-8.987,-0.952,1.565,-1.036
