ax,ay,az,gx,gy,gz
8.581,-5.53,-4.848,0.304,0.153,0.291
7.24,-5.899,-3.177,0.257,0.241,0.296
7.158,-5.933,-1.472,0.094,0.228,0.162
8.147,-5.852,-0.552,-0.145,0.319,0.138
9.435,-5.687,-0.79,-0.331,0.266,0.24
10.489,-5.891,-0.995,-0.408,0.162,0.378
11.64,-6.132,-1.216,-0.451,0.257,0.667
11.04,-6.299,-1.446,-0.486,0.11,1.009
8.904,-6.106,-1.353,-0.449,-0.101,1.004
7.076,-5.718,-0.466,-0.392,-0.184,0.636
5.763,-4.136,-0.112,-0.295,-0.129,-0.028
3.701,-0.253,-0.202,-0.16,-0.191,-1.401
1.01,5.544,-0.712,0.272,0.537,-3.327
2.026,16.525,-0.891,1.253,1.831,-5.141
12.065,26.627,5.664,3.044,3.599,-6.398
23.607,24.936,12.793,3.841,3.77,-5.856
31.855,21.02,19.787,3.76,2.924,-3.551
38.303,17.285,32.232,2.256,1.161,-0.059
39.788,15.094,48.03,-0.413,-1.205,3.434
33.311,18.338,56.784,-3.905,-3.67,6.512
24.642,32.241,56.069,-6.491,-3.162,7.932
23.77,44.419,46.925,-7.488,-1.618,7.696
21.456,51.444,29.017,-5.992,-0.22,6.31
21.978,47.509,9.193,-3.139,1.065,4.31
23.448,35.838,-4.766,0.123,1.601,2.003
26.41,23.645,-7.096,2.999,-0.038,0.452
22.304,12.729,-1.249,4.794,-1.327,0.008
20.277,4.946,7.27,5.018,-2.523,0.164
15.596,1.054,13.136,4.384,-3.4,0.65
8.581,0.958,12.827,3.238,-3.441,0.954
1.053,2.169,9.634,2.598,-2.124,0.003
-2.696,5.358,5.133,2.685,-0.686,-2.202
-0.945,15.042,3.765,3.538,1.445,-4.465
15.622,20.701,15.993,4.813,3.861,-5.443
24.208,15.243,26.173,4.339,2.811,-4.608
33.988,14.445,38.629,2.177,0.999,-1.935
39.609,24.749,55.545,-0.451,-1.475,1.558
43.264,28.39,69.307,-3.63,-3.352,5.05
28.89,33.702,58.493,-7.102,-4.294,7.276
26.578,47.412,43.254,-7.36,-2.49,7.173
19.878,52.528,26.05,-4.906,-0.262,5.417
20.694,40.827,8.932,-1.872,2.46,3.441
20.722,26.398,-4.554,0.911,2.292,1.362
23.239,14.759,-5.606,3.472,1.032,-0.086
20.566,5.409,0.077,4.428,-0.247,-0.268
19.433,-0.516,5.453,4.167,-1.934,-0.02
13.248,-2.441,7.857,3.378,-3.796,0.167
6.306,-1.025,7.187,2.836,-3.085,0.151
1.863,1.192,5.741,2.54,-2.131,-0.618
-0.7,4.223,4.293,2.554,-0.54,-2.258
-0.63,10.922,3.007,3.025,1.731,-4.243
12.635,20.216,11.261,4.272,4.271,-5.621
28.222,16.071,24.536,4.318,3.591,-4.471
34.711,12.47,37.069,2.774,1.903,-2.125
37.192,16.111,52.337,0.421,-0.685,0.968
39.61,23.283,67.918,-2.318,-2.879,4.46
28.34,27.057,66.178,-5.81,-4.911,7.274
18.658,40.583,52.167,-7.3,-2.575,7.52
17.468,49.874,34.906,-6.204,-1.055,6.12
18.241,47.084,15.443,-3.647,1.474,4.247
21.779,34.171,-0.458,-0.74,2.548,2.179
25.091,20.965,-6.161,1.947,2.009,0.518
23.543,10.579,-3.367,3.66,-0.119,-0.439
20.557,3.003,2.44,4.138,-1.279,-0.388
17.545,-0.787,7.309,3.849,-2.802,-0.026
10.029,-0.959,8.504,3.238,-3.286,0.204
4.119,1.803,8.029,2.904,-1.942,0.009
0.993,5.672,5.554,3.054,-0.146,-0.938
-1.2,11.204,3.944,3.495,1.734,-2.943
10.165,19.731,10.096,4.719,4.151,-4.925
26.78,12.887,24.803,4.852,3.249,-4.194
36.353,8.196,36.937,3.178,1.454,-1.983
39.827,14.336,52.355,0.519,-1.357,0.619
43.95,24.216,67.929,-2.238,-3.396,4.112
33.978,27.83,67.815,-5.731,-4.995,7.397
26.454,44.597,51.218,-7.392,-2.562,7.798
20.402,54.608,32.515,-6.11,-1.229,6.304
19.525,48.356,12.431,-3.327,1.29,4.519
21.365,33.451,-2.701,-0.219,2.183,2.243
24.939,21.322,-7.399,2.428,1.391,0.458
19.78,10.618,-4.047,4.051,-0.384,-0.519
19.115,2.865,2.644,4.422,-1.35,-0.523
15.917,-0.347,8.005,4.014,-3.09,-0.325
10.18,-0.405,8.293,3.292,-3.141,0.151
5.074,-0.086,6.736,3.048,-2.346,0.194
1.413,0.882,5.406,2.977,-1.385,-0.71
-1.318,5.011,3.886,2.981,1.067,-2.705
5.108,15.449,3.596,3.894,3.026,-4.61
15.967,24.111,14.906,5.0,4.916,-5.236
25.988,22.276,29.717,4.513,3.09,-4.161
32.999,19.951,42.716,2.594,1.651,-1.573
36.401,28.079,58.492,0.258,-1.201,1.919
36.792,32.716,73.505,-3.029,-2.932,5.412
29.819,37.727,68.28,-6.522,-4.948,7.816
24.788,50.104,49.735,-7.598,-2.06,8.26
20.433,60.153,30.208,-5.939,-1.068,6.68
20.069,51.001,10.716,-3.183,0.94,4.656
19.416,36.036,-4.16,-0.189,1.891,2.219
21.262,22.116,-8.389,2.481,1.534,0.059
19.499,10.833,-3.049,4.056,-0.203,-1.299
18.678,1.996,3.785,4.294,-0.833,-1.35
16.943,-1.449,8.317,3.809,-2.074,-1.046
10.617,-1.521,8.091,3.151,-2.751,-0.571
4.22,-0.171,6.116,2.884,-1.925,-0.759
-0.048,4.07,4.676,2.996,-0.211,-1.879
-1.077,9.502,5.157,3.659,2.206,-3.739
8.673,20.05,12.251,4.88,3.974,-5.251
23.916,17.323,25.185,5.286,3.952,-4.868
33.949,12.954,34.68,4.113,2.704,-3.04
40.285,11.893,49.325,1.586,-0.144,-0.134
41.862,15.491,63.112,-1.374,-3.028,3.359
40.558,20.896,70.978,-4.867,-4.606,6.59
29.81,37.504,59.565,-7.609,-4.059,8.069
21.632,50.75,43.608,-7.009,-2.888,7.485
18.41,52.979,24.888,-4.146,-0.476,5.745
20.792,45.048,9.155,-1.039,1.072,3.418
18.299,28.323,-5.216,1.507,1.059,0.974
18.8,12.757,-5.312,3.841,0.348,-1.041
20.482,1.94,1.707,4.192,-0.631,-1.754
18.943,-3.192,5.422,3.521,-2.133,-1.751
14.381,-3.819,5.773,2.731,-2.891,-1.283
7.664,-2.276,5.024,2.65,-2.288,-0.897
2.233,1.552,4.206,2.889,-1.06,-1.229
-0.886,7.249,4.518,3.669,1.268,-2.21
0.657,14.586,5.947,4.849,3.5,-3.967
11.901,24.883,15.896,6.025,4.904,-4.968
24.358,21.514,27.433,5.88,4.718,-3.812
30.272,16.728,36.52,4.441,3.114,-1.729
33.503,13.796,50.532,1.48,0.417,1.091
31.697,16.006,64.108,-1.892,-1.837,4.583
26.816,21.372,69.262,-5.385,-3.709,6.968
16.351,38.215,57.869,-7.705,-3.728,7.505
15.498,50.182,41.464,-7.179,-2.876,6.762
11.926,52.02,21.397,-4.397,-1.631,4.8
14.969,43.396,4.203,-1.585,0.362,2.461
15.511,26.652,-9.847,0.947,0.728,0.605
17.692,11.683,-9.066,3.207,0.102,-0.92
15.436,1.705,-1.518,3.627,-0.343,-1.562
17.107,-2.132,3.947,2.974,-0.975,-1.202
13.069,-1.199,6.509,2.452,-2.563,-0.702
4.814,3.293,6.608,2.565,-1.337,-0.743
1.487,6.93,5.99,3.252,0.881,-2.008
0.2,13.408,4.984,4.316,2.646,-3.753
12.021,25.066,10.399,5.679,4.212,-5.36
22.132,22.779,21.343,6.414,6.394,-5.03
31.397,20.792,30.37,4.677,3.895,-3.15
37.663,22.477,43.432,1.73,0.929,0.006
42.717,28.817,58.703,-1.413,-1.721,3.498
36.797,32.847,66.051,-4.906,-3.018,6.708
29.13,47.505,58.519,-7.93,-4.194,8.217
25.045,57.294,41.804,-7.81,-2.215,7.706
18.044,58.14,22.767,-5.149,-0.539,5.847
16.06,47.025,5.461,-2.074,1.911,3.723
15.715,29.491,-7.019,0.553,1.964,1.596
17.882,14.3,-9.814,2.927,0.83,-0.033
15.746,2.043,-2.496,3.895,-0.01,-0.417
16.326,-3.056,3.329,3.244,-0.749,0.057
11.811,-2.949,5.697,2.368,-2.085,0.587
4.343,1.165,5.138,2.121,-1.493,0.652
0.457,5.552,3.81,2.46,-0.284,-0.633
-0.409,11.274,1.841,3.355,1.056,-2.735
12.554,19.9,6.939,4.837,2.822,-4.668
26.854,17.292,19.675,5.849,4.364,-4.615
35.822,12.197,30.275,4.817,2.639,-3.082
41.152,10.447,44.436,2.104,0.815,-0.169
43.35,14.335,61.004,-0.787,-1.037,3.324
38.419,19.343,67.81,-4.28,-3.059,6.641
26.153,31.667,55.419,-6.94,-3.454,8.013
24.186,42.987,39.424,-6.896,-1.589,7.376
19.226,46.384,20.285,-4.491,-0.474,5.462
19.372,38.098,2.617,-1.578,1.434,3.109
17.952,22.925,-8.776,1.001,1.644,0.753
20.708,10.185,-8.59,2.913,0.309,-1.031
16.898,0.602,-2.819,3.646,-0.589,-1.455
17.367,-4.445,2.637,3.379,-1.238,-1.059
14.051,-4.465,5.188,2.655,-2.718,-0.405
6.285,-1.691,4.684,2.434,-2.206,-0.106
1.612,1.554,4.128,2.377,-0.859,-0.663
-0.073,6.015,3.605,2.852,0.659,-2.387
3.667,15.172,3.575,3.748,2.685,-4.361
15.766,18.177,12.661,5.051,5.038,-5.14
27.986,13.868,21.833,4.787,4.22,-3.955
32.177,9.832,32.285,3.348,2.347,-1.799
33.603,8.83,47.393,0.747,-0.327,1.328
32.206,8.333,62.288,-2.286,-2.458,4.821
27.787,17.253,62.84,-5.778,-4.999,7.163
20.261,31.179,52.403,-7.366,-3.649,7.807
18.455,42.613,35.837,-6.543,-3.067,6.841
14.996,44.109,15.98,-3.72,-1.303,5.007
14.266,36.637,-0.448,-0.639,0.556,2.529
15.263,23.996,-7.772,2.057,1.359,0.465
15.873,12.296,-5.441,4.054,0.052,-1.137
16.044,2.581,1.343,4.528,0.025,-1.388
18.406,-1.71,6.427,3.981,-0.767,-0.918
15.36,-2.285,8.161,3.183,-2.368,-0.277
5.447,0.83,6.353,2.77,-2.148,-0.61
1.171,4.679,5.465,2.929,-0.044,-1.741
0.239,9.825,4.494,3.571,1.052,-3.663
10.005,20.49,13.098,4.788,3.439,-5.237
24.565,16.269,25.618,4.881,3.32,-4.473
33.287,11.947,34.501,3.601,2.199,-2.245
37.853,11.94,49.263,0.939,-0.549,0.715
37.902,16.496,64.526,-1.966,-2.261,4.207
30.891,19.539,66.905,-5.459,-4.662,6.941
19.23,35.259,53.302,-7.759,-3.394,7.342
15.156,45.565,38.177,-7.127,-2.654,6.222
10.713,45.831,19.081,-4.344,-0.83,4.488
13.319,36.608,2.569,-1.354,1.217,2.478
15.669,21.88,-7.943,1.014,1.328,0.93
15.705,9.223,-6.487,3.214,-0.22,-0.226
13.678,0.058,-0.668,3.635,-0.503,-0.621
13.661,-2.692,3.502,3.022,-1.173,-0.687
9.496,-0.484,5.288,2.502,-2.109,-0.691
3.011,3.501,5.111,2.873,-0.833,-1.071
1.696,7.237,4.875,3.499,1.134,-2.251
5.005,12.996,6.803,4.374,2.912,-3.924
17.546,14.468,14.068,5.691,4.647,-4.353
25.1,11.125,20.96,5.918,4.52,-3.464
31.329,6.708,29.305,4.64,3.024,-1.692
31.976,4.83,41.502,1.738,0.966,0.933
31.383,7.339,54.608,-1.195,-1.604,4.355
24.22,20.963,60.51,-4.681,-4.366,6.584
16.909,35.853,51.237,-6.747,-4.156,7.529
10.977,46.236,36.382,-6.152,-2.978,6.805
10.113,48.4,20.404,-3.367,-1.46,5.229
11.684,40.351,5.48,-0.585,0.865,2.955
10.261,23.185,-7.318,1.628,1.389,0.709
14.436,7.809,-4.625,3.224,1.098,-0.941
16.936,-2.198,1.235,3.215,0.362,-1.245
16.861,-6.572,3.996,2.322,-0.297,-0.746
11.732,-6.658,3.344,1.422,-1.603,-0.047
6.666,-3.463,2.399,1.102,-1.029,-0.047
2.069,2.263,1.213,1.208,-0.232,-0.863
-0.742,7.988,0.173,1.708,1.33,-2.779
4.583,20.105,3.298,3.308,3.246,-4.499
15.16,25.258,18.472,4.918,5.259,-4.854
23.425,22.111,31.617,4.513,3.643,-3.575
29.998,18.324,45.199,2.181,1.953,-0.928
31.595,27.066,61.368,-0.367,-0.839,2.565
29.308,31.949,71.421,-3.859,-3.724,5.743
19.12,39.076,55.696,-7.003,-5.076,7.402
14.139,49.38,37.838,-6.876,-3.463,7.074
8.188,53.275,20.352,-4.452,-2.467,5.141
8.991,40.996,2.995,-1.746,-0.269,2.704
11.935,24.715,-9.523,0.626,1.103,0.242
16.46,12.008,-7.993,2.721,0.44,-1.356
16.456,2.061,-2.645,3.355,-0.252,-1.677
16.359,-2.147,1.582,3.178,-0.889,-1.342
13.863,-2.69,3.495,2.816,-1.388,-0.667
6.458,-0.787,3.464,2.82,-0.973,-0.269
0.909,3.471,2.987,2.918,0.355,-0.899
-0.456,8.695,3.142,3.815,2.221,-2.726
6.085,20.996,10.521,5.06,4.601,-4.576
22.525,14.259,25.964,5.529,4.818,-4.084
30.555,9.709,37.642,3.989,3.1,-2.381
35.505,10.325,52.716,1.446,0.607,0.191
32.973,17.002,67.445,-1.698,-1.409,3.632
25.669,17.493,67.156,-5.191,-3.536,6.16
14.675,34.407,50.218,-7.371,-3.158,6.349
10.308,44.154,34.165,-6.26,-2.19,5.242
7.648,42.744,15.716,-3.647,-0.135,3.568
15.13,31.509,0.303,-0.712,1.39,1.703
20.899,16.903,-5.674,1.64,1.345,0.963
18.928,4.657,-2.891,3.023,0.07,1.046
16.311,-2.035,1.759,2.859,-0.949,1.425
13.291,-4.205,4.944,2.306,-2.57,1.684
6.025,-3.642,4.997,1.543,-3.512,1.702
-0.252,-0.647,3.613,1.366,-2.944,0.733
-4.211,4.272,1.708,1.573,-1.713,-1.761
-4.277,13.393,0.898,2.603,0.807,-4.166
8.491,22.25,8.297,4.035,3.552,-6.243
23.191,19.027,20.733,4.506,2.826,-6.331
35.174,14.569,27.924,3.488,1.844,-4.196
41.052,12.759,41.045,1.561,0.287,-0.703
44.252,11.161,56.529,-1.25,-1.664,2.789
42.465,15.179,64.395,-4.743,-3.834,6.268
34.614,33.933,54.563,-7.385,-2.727,8.086
23.704,49.58,40.305,-6.64,-1.77,7.828
18.661,52.916,23.953,-3.898,-0.307,6.211
19.522,45.537,9.865,-0.573,1.121,4.058
14.619,30.258,-3.065,1.939,0.701,2.011
12.561,11.725,-3.613,4.111,0.175,0.37
13.785,-2.591,4.399,4.118,-0.355,-0.573
14.884,-9.094,7.587,2.91,-1.226,-0.616
10.278,-10.499,4.99,1.398,-2.696,-0.291
4.334,-8.684,1.198,0.756,-2.312,-0.6
-1.244,-2.718,-1.895,0.529,-1.469,-2.112
-3.636,6.713,-2.51,1.14,0.49,-3.909
-2.362,19.104,1.123,2.803,2.506,-5.742
3.659,33.036,12.48,4.482,4.87,-6.831
15.0,33.14,26.178,4.714,5.458,-5.51
24.629,26.295,37.239,3.568,4.883,-2.801
30.569,22.177,52.456,1.047,1.68,0.692
32.688,21.919,64.926,-2.446,-1.018,4.184
31.965,24.205,65.336,-5.938,-3.43,7.074
22.82,34.536,53.63,-7.972,-2.784,7.478
20.222,46.987,38.96,-7.885,-2.75,6.588
15.319,48.707,18.322,-5.932,-0.861,5.0
13.429,40.336,-0.213,-3.478,0.677,2.977
11.826,25.429,-11.358,-0.722,1.584,0.656
16.013,14.144,-10.739,1.743,0.795,-0.828
15.072,3.342,-5.138,3.105,0.755,-0.919
16.698,-2.404,0.696,3.25,-0.387,-0.697
13.606,-4.836,3.932,2.86,-1.738,-0.216
9.013,-4.776,4.546,2.26,-2.046,0.374
2.632,-3.198,3.479,1.964,-1.537,0.36
-2.159,1.358,2.587,2.099,-0.139,-0.985
-3.249,7.238,2.03,2.71,2.107,-3.112
4.194,20.233,4.335,4.139,4.138,-5.055
14.828,25.991,16.116,5.476,5.95,-5.602
25.966,25.375,29.219,4.808,3.71,-4.317
32.352,22.289,40.852,2.884,1.896,-1.429
31.271,32.453,56.212,0.174,-0.686,2.064
27.432,34.768,69.206,-3.318,-2.396,5.549
21.112,41.747,60.856,-6.811,-4.059,7.478
16.386,50.641,42.244,-7.335,-2.064,7.5
13.365,56.316,25.579,-5.494,-1.28,6.006
16.881,42.629,7.716,-2.77,0.081,4.023
19.038,26.397,-6.543,-0.047,0.388,1.845
19.337,13.026,-8.44,2.241,-0.269,0.459
15.818,3.035,-2.082,3.302,-0.817,-0.131
14.181,-2.24,3.579,3.082,-1.686,-0.12
10.652,-4.009,6.488,2.487,-2.445,0.081
4.66,-2.538,5.309,1.907,-1.964,0.0
0.773,-0.68,3.449,1.813,-0.702,-1.252
-1.756,5.526,2.2,2.142,0.64,-3.317
-0.734,15.986,3.431,3.465,3.162,-5.326
7.845,28.812,12.217,4.829,5.553,-6.508
18.679,30.201,24.836,4.869,4.149,-5.391
30.143,26.27,33.892,3.633,3.003,-2.592
37.256,24.938,48.394,1.199,0.381,0.901
38.713,24.604,61.833,-2.204,-2.468,4.393
35.821,26.996,65.843,-5.697,-4.505,7.356
27.377,38.319,53.106,-7.836,-2.638,8.04
21.021,49.302,38.687,-7.036,-2.082,7.075
16.031,47.866,21.168,-4.142,0.181,5.457
18.52,36.088,5.927,-1.309,1.711,3.459
17.632,19.897,-5.774,1.156,1.215,1.41
18.974,4.829,-4.135,3.2,-0.081,0.194
15.702,-4.384,2.139,3.281,-0.732,-0.118
14.767,-7.212,5.573,2.239,-2.169,-0.039
8.462,-5.439,5.093,1.357,-3.016,0.256
4.049,-3.246,3.171,0.986,-2.148,0.132
1.086,0.671,1.215,1.157,-1.176,-0.933
-0.462,4.841,0.333,1.672,0.102,-2.936
2.544,14.094,2.451,2.683,2.102,-4.889
14.742,18.648,11.344,4.201,4.267,-5.946
24.944,15.888,19.339,4.666,4.494,-4.947
31.523,11.604,28.45,3.811,3.435,-2.729
33.599,11.167,43.583,1.464,1.634,0.758
32.479,11.007,56.626,-1.4,-0.561,4.125
28.901,21.333,63.393,-4.868,-2.975,6.847
23.605,38.257,58.536,-7.427,-3.543,8.019
17.725,51.403,43.787,-7.221,-3.063,7.87
15.095,52.961,25.147,-4.45,-1.846,6.285
14.501,44.499,9.061,-1.422,-0.006,4.317
12.048,27.589,-4.081,1.238,0.184,2.203
10.876,9.88,-4.87,3.534,0.018,0.277
12.417,-2.779,1.733,3.941,-0.244,-0.654
13.674,-9.496,5.058,3.086,-0.812,-0.657
12.38,-11.398,4.59,1.903,-2.171,-0.355
6.456,-10.266,1.523,1.009,-2.065,-0.289
2.503,-6.638,-1.223,0.42,-1.62,-0.984
-0.783,-0.125,-2.315,0.436,-0.699,-2.685
-1.613,9.117,-1.242,1.205,0.825,-4.585
-0.351,20.819,2.077,2.848,2.909,-6.286
6.172,33.59,12.949,4.575,5.027,-6.906
16.28,33.656,23.926,5.22,4.375,-5.533
25.103,26.625,31.682,4.476,4.247,-2.751
30.124,21.436,43.569,1.818,1.83,0.741
31.516,19.378,56.803,-1.67,-0.519,4.233
33.18,23.276,62.201,-5.162,-2.573,6.94
28.41,38.014,59.693,-7.515,-2.427,7.963
21.642,53.703,48.462,-8.076,-2.946,7.926
17.244,58.696,31.224,-5.925,-1.208,6.731
16.064,52.938,14.007,-3.174,-0.12,4.798
12.172,36.32,-0.32,-0.33,0.511,2.56
11.758,19.126,-6.631,2.058,0.651,0.777
14.229,2.778,-1.183,3.659,0.532,-0.285
16.141,-5.996,3.33,3.363,-0.374,-0.392
14.681,-9.371,4.733,2.373,-1.539,0.141
9.84,-8.716,3.18,1.297,-2.459,0.536
5.289,-6.741,1.513,0.79,-2.109,0.325
1.791,-1.362,-0.224,0.483,-1.622,-0.915
-1.502,4.474,-0.309,0.916,-0.201,-3.105
-0.394,14.029,0.835,2.302,2.141,-5.198
8.811,23.358,8.745,4.025,4.485,-6.419
21.508,22.567,20.599,4.86,4.355,-5.388
28.138,17.711,29.536,4.117,3.646,-2.992
33.816,15.389,43.496,1.795,1.53,0.5
34.087,16.048,58.166,-1.351,-1.336,3.993
31.51,19.042,63.604,-4.844,-3.495,7.057
23.088,31.195,53.144,-7.559,-3.296,7.867
18.738,42.505,40.174,-7.268,-3.122,7.384
14.979,45.042,22.981,-4.857,-1.644,6.064
15.127,36.823,6.392,-2.034,0.19,4.371
12.705,22.916,-5.405,0.651,0.421,2.504
11.676,9.537,-4.4,3.007,-0.312,1.079
11.092,-1.059,1.229,3.543,-0.445,0.359
11.041,-7.036,4.933,3.1,-1.0,-0.072
9.979,-9.865,5.173,2.173,-1.854,-0.189
7.175,-9.791,3.056,1.458,-1.926,-0.199
4.699,-9.25,-0.377,0.94,-1.289,-0.601
3.407,-5.722,-2.987,0.619,-0.896,-1.698
0.763,1.806,-3.899,0.812,-0.44,-3.439
-0.9,11.734,-1.913,2.059,1.499,-5.122
2.411,25.311,6.54,3.581,3.498,-6.046
11.576,27.849,20.723,5.175,5.268,-4.933
14.722,23.47,31.834,4.845,4.922,-3.289
20.507,17.003,44.276,2.787,3.364,-0.251
22.404,18.927,58.638,-0.356,0.779,3.241
22.55,20.285,66.631,-3.849,-1.131,6.042
16.824,32.187,61.165,-7.28,-2.94,6.478
19.218,46.47,48.291,-8.405,-2.573,6.642
15.665,54.717,30.926,-6.612,-1.244,5.679
16.084,47.377,12.404,-3.953,0.089,3.845
15.047,33.622,-3.621,-1.113,0.553,1.475
17.281,19.806,-9.177,1.303,0.236,-0.117
15.073,7.131,-4.846,3.21,-0.272,-0.949
16.527,-1.191,1.187,3.431,-0.65,-1.06
15.867,-4.143,4.556,2.946,-1.492,-0.651
12.425,-3.798,5.065,2.393,-2.209,0.132
5.818,-3.406,2.946,2.347,-1.872,0.481
1.944,-0.97,1.646,2.494,-1.289,-0.233
-0.743,2.438,1.303,2.785,-0.315,-2.035
-1.779,10.317,1.457,3.203,1.481,-4.103
2.719,22.93,8.129,4.41,3.644,-5.519
9.989,26.008,19.152,5.533,5.433,-4.953
13.97,25.882,29.377,4.953,4.274,-3.51
19.053,21.322,38.54,3.487,3.679,-0.828
18.902,15.687,53.539,0.894,0.645,1.823
14.439,11.798,62.384,-2.599,-1.879,4.339
10.68,24.126,67.038,-6.091,-4.88,5.114
10.497,36.375,63.248,-7.898,-3.976,5.798
10.759,48.842,52.45,-8.282,-3.6,5.71
13.061,53.567,33.452,-6.401,-1.779,5.331
15.92,48.092,15.567,-3.822,-0.047,4.386
18.362,32.393,0.023,-0.92,1.375,3.16
19.273,17.704,-5.333,1.526,1.037,1.848
17.831,6.556,-1.985,3.234,-0.013,1.168
17.208,-0.395,2.764,3.509,-0.886,0.913
15.716,-3.583,6.004,3.172,-2.52,0.7
10.894,-3.669,7.206,2.588,-3.444,0.586
7.368,-2.789,7.516,2.501,-3.293,0.178
4.812,-3.044,6.728,2.536,-2.836,-0.553
2.506,-0.807,5.227,2.616,-2.413,-2.151
-2.208,6.176,4.245,2.918,-0.58,-3.998
0.077,20.831,10.317,4.092,1.923,-5.591
13.171,24.316,24.44,5.225,4.006,-5.097
17.36,22.815,33.713,4.211,3.96,-4.187
25.301,23.118,46.581,1.975,2.588,-1.114
32.313,25.337,62.207,-0.569,0.289,2.379
30.594,22.759,70.476,-4.062,-1.49,5.871
19.334,31.849,66.144,-7.554,-3.126,6.615
21.474,45.117,60.896,-8.838,-1.608,6.821
22.686,51.97,45.533,-8.191,0.129,5.78
22.894,49.405,24.952,-5.996,1.705,4.815
26.002,40.904,7.067,-3.162,1.515,3.31
27.067,29.905,-3.235,-0.221,0.817,2.062
25.072,19.498,-5.235,2.378,-1.123,1.019
20.083,10.694,0.297,4.246,-2.011,0.141
18.584,4.125,7.727,4.545,-3.255,-0.77
15.712,0.547,12.594,4.287,-3.504,-1.106
13.052,-1.354,14.152,3.932,-3.338,-0.955
8.102,-4.617,13.637,3.846,-2.769,-0.876
5.443,-8.368,12.041,3.63,-1.523,-0.746
4.354,-11.522,8.836,3.113,-0.633,-0.589
2.749,-11.962,4.192,2.177,-0.219,-1.259
-2.644,-5.312,1.0,1.512,0.426,-2.799
-3.168,6.558,-0.42,2.119,2.322,-4.293
7.465,23.618,10.275,3.313,3.586,-5.454
18.531,26.276,26.63,3.166,1.765,-5.105
29.408,26.868,40.087,2.204,0.582,-2.611
36.081,32.096,56.356,0.284,-1.241,0.882
37.697,38.643,70.796,-2.838,-3.773,4.374
27.379,40.908,69.245,-6.331,-5.742,7.01
20.522,53.583,54.112,-8.159,-3.013,7.859
14.266,62.771,38.361,-7.564,-1.916,6.828
14.645,56.586,19.043,-5.081,0.435,5.691
17.986,42.296,3.023,-2.136,1.282,3.984
21.252,25.293,-4.745,0.628,0.885,2.324
19.642,12.344,-2.012,2.99,-0.843,1.144
16.941,2.153,4.43,3.906,-1.39,0.665
14.814,-3.255,9.078,3.598,-2.967,0.181
10.137,-4.862,10.733,3.003,-3.726,-0.052
6.993,-4.868,9.02,2.735,-3.053,-0.193
5.628,-6.248,6.767,2.881,-2.238,-0.358
5.177,-7.904,4.956,3.006,-1.861,-0.546
4.855,-8.777,3.571,2.839,-1.14,-0.988
4.648,-6.766,0.871,2.536,-0.839,-1.991
0.037,1.752,0.31,2.613,-0.437,-3.369
-1.161,13.862,2.069,3.597,1.24,-4.996
9.103,22.803,16.113,4.775,3.301,-5.471
14.293,22.406,28.5,4.041,2.094,-4.922
21.655,22.066,44.098,2.036,0.745,-2.067
26.694,24.394,59.305,-0.538,-1.028,1.426
31.162,28.53,72.199,-4.031,-3.536,4.918
24.081,37.32,69.965,-7.523,-5.544,6.984
21.857,52.133,60.311,-8.798,-3.745,8.118
19.257,60.312,42.876,-7.553,-1.585,7.419
21.276,55.861,23.378,-5.245,0.606,6.228
20.152,43.277,6.643,-2.214,1.416,4.496
19.586,26.122,-3.4,0.729,1.223,2.489
20.811,12.69,-2.82,3.216,0.207,1.051
18.719,1.803,2.707,4.253,-1.026,0.31
16.228,-4.17,7.927,4.198,-2.506,-0.075
12.658,-6.78,10.218,3.468,-3.233,-0.034
9.073,-5.491,9.04,2.863,-3.362,0.151
4.997,-5.973,6.876,2.809,-3.116,-0.154
3.754,-5.813,5.418,2.939,-2.582,-0.886
3.465,-5.706,4.053,2.962,-2.11,-1.895
2.187,-1.915,2.59,2.724,-1.526,-3.698
0.601,6.12,3.128,3.005,0.505,-5.242
4.308,17.335,10.967,4.065,2.532,-6.242
14.801,17.801,22.76,4.142,2.425,-5.342
21.708,15.303,31.25,2.815,2.484,-3.775
26.822,14.777,45.946,0.751,0.832,-0.366
31.433,15.442,60.145,-1.869,-1.299,3.127
30.266,18.533,67.212,-5.361,-2.853,6.249
21.123,31.169,65.94,-7.891,-2.303,6.636
20.309,45.618,62.643,-8.838,-0.589,6.554
23.873,51.734,44.984,-8.002,1.45,5.387
25.401,49.069,25.544,-5.67,2.906,4.321
27.48,38.392,8.673,-2.82,2.586,2.825
28.715,26.928,-0.854,0.106,1.759,1.855
26.107,15.11,-2.934,2.653,-0.553,1.08
20.13,6.544,2.651,4.135,-1.729,0.45
17.163,1.087,8.345,4.14,-3.121,-0.34
13.649,-2.005,11.54,3.699,-3.569,-0.658
10.76,-3.361,11.493,3.24,-3.335,-0.588
7.054,-3.992,9.801,3.189,-2.76,-0.751
5.575,-5.132,8.431,3.497,-1.882,-0.989
4.109,-5.879,7.041,3.769,-1.24,-1.554
2.572,-3.625,4.51,3.823,-0.57,-3.034
1.11,5.309,3.506,4.148,0.638,-4.652
3.782,16.503,6.011,5.145,2.614,-6.106
12.534,19.162,16.212,5.791,4.366,-5.816
17.166,17.99,26.2,4.4,3.03,-4.75
22.841,15.938,38.189,2.116,1.867,-1.91
22.097,15.633,52.512,-0.675,-0.125,1.407
19.488,17.407,64.229,-4.168,-2.277,4.568
12.784,30.091,67.041,-7.441,-4.604,5.485
10.761,45.197,63.312,-8.659,-3.12,6.113
13.112,55.885,49.201,-8.372,-1.643,5.716
16.003,55.653,29.331,-6.279,-0.383,4.642
19.274,46.946,11.491,-3.425,0.766,3.589
21.246,32.805,-1.344,-0.397,0.837,2.525
22.77,19.462,-4.725,2.18,0.063,1.376
17.877,8.466,0.974,4.007,-1.168,0.688
17.827,0.722,7.621,4.095,-2.048,0.401
14.711,-2.761,11.335,3.498,-3.584,0.123
10.145,-3.476,11.816,2.81,-3.678,0.173
6.147,-4.052,9.788,2.501,-3.445,-0.143
3.091,-3.894,7.379,2.528,-2.989,-1.046
1.37,-2.755,5.756,2.825,-2.276,-2.517
-0.065,2.7,4.246,3.209,-1.017,-4.347
0.722,13.391,5.77,4.318,1.093,-5.914
6.389,26.319,16.133,5.543,3.212,-6.425
15.22,26.801,26.629,5.539,2.144,-5.85
25.837,22.446,33.441,4.329,2.291,-3.863
33.625,18.69,45.537,2.035,0.256,-0.392
37.217,17.342,58.009,-1.414,-2.292,3.101
34.821,19.906,61.931,-4.907,-4.801,5.804
29.585,34.883,65.141,-7.223,-3.582,7.405
24.529,51.248,64.73,-8.491,-2.582,7.955
25.613,59.097,50.648,-8.34,-0.833,7.242
24.394,56.831,31.051,-6.377,0.887,6.418
25.277,45.588,13.073,-3.743,1.799,5.042
25.298,31.228,-1.347,-0.893,1.561,3.329
24.891,18.001,-5.465,1.698,-0.067,1.813
19.686,9.09,-1.262,3.62,-1.041,0.716
18.097,3.246,4.432,4.052,-2.424,-0.304
14.538,0.487,8.271,3.935,-3.3,-0.919
11.899,0.079,10.518,3.716,-3.296,-1.117
8.854,0.076,11.313,3.792,-2.623,-1.316
8.279,-2.545,12.684,3.835,-1.626,-1.418
8.179,-6.59,12.558,3.704,-0.596,-1.209
8.536,-10.406,8.929,3.086,0.27,-0.923
10.01,-10.533,4.622,2.417,0.444,-1.074
6.816,-7.519,0.077,2.07,-0.353,-2.128
3.782,1.833,-2.277,2.825,1.192,-3.041
7.424,11.7,2.384,4.054,2.36,-3.799
14.244,15.069,16.355,4.57,1.468,-3.754
19.863,9.503,26.689,3.637,1.423,-2.619
27.08,7.336,39.407,1.498,0.619,0.399
30.921,6.399,53.497,-1.721,-2.003,3.246
29.262,8.608,62.865,-5.214,-3.873,5.24
27.355,21.032,64.966,-7.629,-3.444,6.267
24.719,39.177,62.146,-8.657,-3.024,7.035
23.228,49.453,48.642,-7.839,-0.963,6.828
23.622,50.234,29.127,-5.875,0.516,5.967
23.902,45.041,10.799,-3.289,1.115,4.922
21.803,32.432,-3.313,-0.543,1.098,3.517
21.257,19.392,-6.399,1.99,0.343,2.022
20.363,8.041,-1.61,3.419,-0.87,0.872
18.406,0.463,5.112,3.657,-2.3,0.264
14.559,-3.595,9.253,3.124,-3.275,0.056
10.4,-4.477,9.892,2.526,-3.284,0.209
6.159,-5.376,7.579,2.298,-2.844,0.085
4.188,-6.886,4.326,2.28,-2.285,-0.358
4.301,-8.089,1.989,2.437,-1.839,-0.763
5.195,-7.876,0.382,2.623,-1.329,-1.239
4.849,-4.457,-0.422,2.908,-1.095,-2.243
3.551,2.508,0.426,3.838,-0.265,-3.629
3.924,12.283,4.919,4.921,1.285,-5.064
12.998,18.467,16.154,6.053,3.412,-5.193
17.0,17.606,27.476,5.655,2.752,-4.953
26.129,14.573,38.427,3.794,1.272,-2.7
29.279,16.243,53.275,0.558,-0.314,0.728
28.104,19.862,64.912,-2.935,-2.471,4.184
21.362,30.424,69.119,-6.427,-4.541,5.734
21.478,46.135,68.342,-8.268,-3.624,7.109
21.3,58.596,57.702,-8.838,-1.41,7.31
22.543,60.124,37.468,-7.278,-0.513,6.445
25.024,53.385,18.485,-4.734,0.78,5.214
24.805,40.059,1.927,-1.92,0.799,3.585
24.243,26.411,-6.893,0.786,0.198,1.62
19.497,15.811,-4.464,3.46,-0.901,-0.133
18.906,7.659,2.5,4.501,-1.178,-1.138
17.353,4.052,7.908,4.612,-2.481,-1.82
14.203,3.799,10.697,4.601,-2.537,-1.874
11.063,4.748,12.089,4.849,-1.899,-1.711
9.089,4.988,13.67,5.193,-1.29,-2.01
8.181,5.583,15.929,5.554,-0.642,-2.794
8.776,6.137,19.077,5.938,1.132,-3.495
10.16,5.615,21.599,6.107,3.112,-3.889
12.056,6.059,21.145,6.135,3.674,-4.345
13.61,7.78,18.767,6.013,2.955,-5.207
16.437,11.208,15.966,5.696,1.481,-5.799
19.954,13.452,11.03,4.996,0.381,-4.86
27.671,16.242,11.742,3.362,0.453,-2.329
30.787,23.541,21.28,0.749,-1.909,0.442
32.936,29.85,33.856,-2.041,-2.176,3.791
30.778,39.801,47.668,-4.688,-1.841,7.038
28.915,51.981,62.317,-7.027,-2.152,8.711
20.501,63.876,64.614,-8.365,-3.209,8.57
23.618,65.186,48.595,-8.162,-0.471,7.874
21.414,62.629,28.922,-5.894,0.859,6.774
23.072,50.577,11.014,-3.003,2.083,5.181
23.848,34.969,-3.146,-0.137,1.863,2.919
26.713,19.848,-8.302,2.486,0.876,1.048
21.702,9.302,-1.673,4.326,-0.705,0.263
19.912,2.271,6.565,4.218,-2.193,0.076
15.888,-0.962,10.657,3.522,-3.228,0.377
11.188,-2.174,11.02,2.797,-3.193,1.159
6.443,-3.495,8.809,2.297,-3.31,1.335
1.273,-4.24,5.72,2.27,-2.872,0.595
0.592,-3.73,2.71,2.642,-1.823,-0.622
0.15,-0.349,1.07,3.253,-1.494,-2.782
0.805,8.034,1.496,4.48,-0.286,-4.794
2.891,21.322,9.28,5.849,1.93,-6.45
14.607,23.429,21.212,6.95,3.361,-5.923
19.277,19.502,30.479,5.945,2.76,-5.274
28.062,16.222,40.248,3.963,1.704,-2.266
27.443,17.043,54.319,0.705,-0.013,1.226
25.538,15.428,62.139,-2.787,-2.764,4.262
15.358,28.434,66.28,-6.272,-4.936,5.375
12.6,45.592,69.902,-7.905,-4.839,6.683
8.404,57.277,66.828,-8.73,-2.894,6.617
15.699,58.924,52.093,-8.695,-1.428,5.769
20.549,56.248,32.994,-7.308,-0.348,5.226
23.69,46.677,14.211,-4.832,0.977,4.553
24.927,34.848,1.21,-1.9,1.242,3.313
25.157,24.031,-2.563,0.92,-0.077,1.83
21.883,14.332,-0.101,3.286,-1.302,1.021
19.72,6.36,6.125,4.247,-2.345,0.586
16.659,1.946,11.362,4.119,-3.607,0.351
13.011,-0.513,13.649,3.636,-4.022,0.483
8.029,-2.748,12.218,3.145,-3.825,0.56
4.498,-5.153,9.137,2.923,-3.18,0.249
2.725,-6.678,5.64,2.975,-2.416,-0.345
2.997,-7.982,3.949,3.109,-1.826,-0.962
2.252,-5.678,1.978,3.157,-1.325,-2.118
2.676,1.066,0.986,3.844,-0.275,-3.609
3.706,10.359,3.7,5.048,0.576,-5.133
8.896,19.319,18.338,6.141,2.526,-5.166
13.099,20.148,32.259,5.925,1.02,-4.76
21.659,16.239,42.5,4.298,0.395,-2.942
22.466,16.021,57.458,1.282,-1.85,0.046
20.368,17.339,70.112,-2.21,-3.586,3.203
14.856,22.675,71.844,-5.703,-6.324,4.727
12.077,36.085,69.554,-7.969,-4.972,5.858
8.815,50.112,63.245,-8.838,-4.147,6.319
13.678,54.392,45.112,-7.974,-2.162,6.094
17.578,52.042,25.348,-5.981,-0.867,5.408
20.836,42.259,7.562,-3.375,0.185,4.387
22.099,29.238,-3.766,-0.587,0.259,2.969
21.08,17.471,-4.811,1.893,-0.477,1.612
17.793,7.938,0.258,3.416,-1.362,0.718
15.684,1.545,6.243,3.722,-2.33,0.18
12.757,-2.607,9.688,3.448,-2.919,0.082
9.142,-4.589,9.809,2.988,-3.035,0.246
5.626,-6.558,7.203,2.853,-2.543,0.266
3.927,-7.306,4.017,2.858,-2.198,-0.152
4.102,-7.707,2.408,2.97,-1.82,-0.771
3.212,-4.574,0.862,3.052,-1.607,-2.17
2.384,3.444,0.723,3.763,-0.633,-3.841
3.27,13.527,3.748,4.91,0.82,-5.463
10.338,23.303,16.733,6.01,2.868,-5.623
15.263,25.069,28.295,5.897,1.497,-5.667
25.188,22.027,35.361,4.576,1.473,-3.722
29.739,19.188,44.913,2.019,-0.492,-0.397
30.783,18.063,55.853,-1.473,-2.776,3.096
24.505,20.914,58.685,-4.966,-5.32,5.21
21.323,34.017,61.212,-7.263,-3.636,7.249
15.047,49.385,62.673,-8.357,-2.912,7.722
19.249,57.852,52.188,-8.713,-0.28,7.078
22.829,59.342,32.376,-7.221,0.899,5.977
26.453,51.974,12.349,-4.769,1.902,4.596
27.362,38.556,-2.348,-1.937,1.251,2.681
29.589,24.786,-6.619,0.739,0.209,1.402
24.538,12.685,-2.6,3.016,-1.865,0.8
19.248,4.078,5.402,3.794,-2.99,0.416
14.008,-0.912,11.876,3.662,-3.693,0.148
10.464,-3.333,13.374,3.064,-3.616,0.377
5.259,-5.719,9.589,2.644,-3.289,0.262
2.969,-7.209,5.818,2.551,-2.762,-0.379
2.749,-7.752,3.447,2.599,-1.947,-1.207
2.534,-5.054,1.818,2.738,-1.4,-2.447
1.669,3.012,1.424,3.631,-0.097,-4.07
2.7,12.865,4.368,4.867,1.034,-5.53
6.643,25.846,17.247,6.051,3.123,-5.918
13.408,28.275,30.581,5.823,1.814,-5.127
21.594,23.014,38.144,4.314,1.612,-3.326
26.534,17.879,48.503,1.321,-0.664,-0.172
26.22,16.085,58.941,-2.172,-2.285,3.278
21.811,13.26,61.438,-5.665,-4.49,5.021
16.548,22.436,62.059,-7.755,-3.98,5.337
11.878,37.151,63.045,-8.706,-4.233,5.807
13.471,45.485,54.43,-8.755,-2.129,5.71
17.096,47.153,38.548,-7.746,-1.127,5.09
20.425,44.111,19.557,-5.691,-0.223,4.842
22.284,35.68,3.729,-3.046,0.776,4.571
23.216,24.587,-4.09,-0.426,0.792,3.386
20.828,14.267,-4.386,1.728,-0.479,1.959
18.521,5.751,-0.148,2.916,-1.363,0.924
16.434,-0.384,4.783,3.029,-2.486,0.25
13.365,-3.916,7.53,2.568,-3.417,0.028
9.317,-5.073,7.093,2.197,-3.626,-0.004
6.28,-4.731,4.902,2.319,-3.542,-0.189
4.558,-4.272,3.385,2.695,-3.243,-0.811
3.55,-3.06,2.772,3.257,-2.748,-1.816
2.934,0.867,2.57,3.996,-1.883,-3.403
3.019,8.952,4.336,5.134,-0.893,-5.06
4.017,20.203,9.246,6.267,0.9,-6.504
11.865,30.004,22.074,7.185,3.047,-6.536
17.135,30.841,31.305,6.367,1.583,-5.98
26.871,25.923,36.349,4.51,1.826,-3.953
32.447,20.31,43.502,1.82,-0.313,-0.794
33.666,15.342,51.018,-1.295,-2.084,2.699
28.682,15.721,53.388,-4.787,-4.833,5.05
26.192,27.193,59.09,-6.698,-3.946,6.865
19.273,42.823,64.214,-7.765,-4.804,8.015
20.264,51.539,57.599,-8.461,-2.343,8.244
22.915,54.276,42.579,-7.925,-1.465,7.727
23.735,49.801,23.179,-5.951,0.182,6.903
24.139,39.911,5.442,-3.493,1.037,5.685
24.491,26.619,-4.964,-0.923,1.325,3.819
21.233,15.716,-5.616,1.392,0.018,1.9
18.594,6.376,-1.319,2.745,-0.745,0.605
16.165,0.032,3.757,3.005,-2.147,-0.304
13.699,-3.841,6.576,2.792,-3.209,-0.659
10.755,-4.902,6.319,2.535,-3.763,-0.745
7.047,-3.787,4.377,2.71,-3.625,-1.225
4.887,-1.386,3.075,3.245,-3.272,-2.366
3.685,3.382,2.771,4.033,-2.691,-4.126
3.853,11.399,5.494,5.196,-1.147,-5.791
7.46,21.064,14.727,6.375,1.473,-6.562
14.046,23.27,23.101,6.973,2.667,-5.966
16.207,20.556,28.127,6.727,2.864,-4.997
22.309,13.559,31.68,5.436,3.117,-3.252
25.859,4.015,34.32,3.245,1.788,-1.044
25.421,-2.887,34.039,0.275,-0.339,0.998
20.984,-1.113,38.997,-2.813,-2.179,2.11
20.572,8.725,49.204,-5.369,-3.473,3.548
18.824,24.337,60.171,-7.099,-4.388,5.229
18.775,39.529,64.367,-8.315,-3.751,6.513
22.531,47.092,58.441,-8.838,-2.66,7.171
26.007,51.615,41.73,-7.867,-1.216,7.311
27.517,48.593,22.383,-5.675,0.52,6.759
26.804,38.651,5.649,-3.051,1.572,5.256
25.549,25.723,-3.241,-0.421,1.158,3.214
22.091,15.056,-3.684,1.963,-0.081,1.508
18.158,4.778,1.506,3.115,-1.114,0.535
15.388,-1.628,5.839,3.064,-2.112,0.003
11.836,-5.064,7.412,2.683,-3.142,-0.22
8.544,-5.844,6.394,2.452,-3.257,-0.134
5.682,-5.405,4.244,2.605,-3.038,-0.371
5.146,-5.028,3.344,3.039,-2.787,-0.826
4.231,-4.587,3.422,3.473,-2.457,-1.555
2.862,-0.766,3.134,3.973,-1.72,-2.953
2.401,7.432,4.492,5.012,-0.244,-4.49
3.79,18.029,10.155,5.968,1.812,-5.784
11.358,23.042,20.67,6.904,2.827,-5.808
16.677,22.417,29.343,6.129,2.494,-5.238
26.038,17.266,36.926,4.371,1.265,-3.082
29.499,14.923,49.59,1.202,-1.048,-0.085
32.038,15.077,58.949,-2.29,-3.985,3.283
27.732,27.016,63.133,-5.783,-5.141,5.392
26.0,43.709,66.261,-7.584,-5.243,7.135
20.397,61.087,57.939,-8.568,-2.932,8.078
20.367,65.256,37.546,-7.089,-1.153,7.608
20.305,58.485,18.231,-4.387,0.8,6.18
20.496,42.232,3.042,-1.593,0.848,4.17
20.948,24.97,-6.756,0.835,0.772,2.464
20.181,8.876,-3.882,3.02,-0.863,1.06
17.936,-0.895,3.431,3.312,-1.852,0.551
13.803,-5.144,7.785,2.692,-3.264,0.416
9.22,-5.981,7.553,2.008,-3.31,0.625
5.196,-6.015,5.041,1.805,-2.973,0.441
3.195,-6.156,2.747,1.982,-2.566,-0.106
3.428,-7.379,2.318,2.291,-2.1,-0.623
3.171,-7.542,2.053,2.41,-1.574,-1.15
3.109,-5.425,1.662,2.497,-1.122,-2.113
1.57,0.731,1.621,2.898,-0.364,-3.671
2.301,9.045,3.513,3.796,1.03,-5.119
4.796,22.753,9.479,4.938,3.0,-6.621
15.581,24.954,20.006,5.411,1.826,-7.082
26.769,22.811,25.705,4.421,1.935,-5.26
34.436,21.126,35.9,2.619,-0.164,-1.793
36.409,20.914,49.723,-0.369,-2.684,1.7
33.578,23.249,58.509,-3.861,-5.278,5.192
23.529,34.674,58.731,-6.536,-3.602,7.691
17.329,48.012,57.632,-7.74,-2.335,7.646
22.127,53.29,44.231,-7.733,0.355,6.576
24.083,51.127,23.096,-6.026,2.011,5.39
27.699,38.407,4.961,-3.539,2.558,3.761
31.061,25.392,-3.966,-0.886,1.452,2.016
29.148,12.532,-4.601,1.336,-0.649,1.484
18.981,3.219,1.127,2.467,-2.481,1.112
13.801,-2.713,7.368,2.413,-3.372,0.71
9.512,-4.977,9.614,1.982,-3.588,0.543
4.439,-5.206,6.655,1.608,-3.346,0.246
2.772,-4.478,3.215,1.885,-2.504,-0.399
2.653,-3.231,1.102,2.495,-2.077,-1.327
2.679,0.083,0.832,3.299,-1.867,-2.813
2.624,6.012,2.275,4.289,-1.017,-4.51
4.543,14.792,5.309,5.462,0.455,-5.908
6.029,30.09,12.731,6.456,2.212,-7.121
14.468,33.106,19.298,7.134,2.235,-7.173
20.702,31.872,23.733,5.794,2.184,-5.497
31.684,27.896,28.665,3.705,0.902,-2.29
34.399,27.948,37.361,0.849,-1.422,1.202
36.647,23.341,43.12,-2.476,-4.067,4.579
32.387,35.057,48.133,-5.729,-3.948,7.027
30.614,47.192,52.247,-7.117,-2.934,8.426
25.88,57.165,48.394,-8.075,-0.387,8.48
30.594,55.19,33.398,-7.487,2.277,7.764
31.657,45.962,16.231,-5.531,3.535,6.816
30.237,29.061,3.128,-3.491,3.818,5.269
28.833,14.521,-5.192,-1.872,2.422,3.539
23.786,3.221,-7.151,-0.176,0.253,1.924
16.093,-1.874,-3.819,0.709,-1.626,0.444
11.202,-0.877,-0.124,1.146,-2.641,-1.161
8.25,4.913,1.121,2.228,-2.969,-2.659
8.594,12.078,3.092,4.046,-2.812,-4.363
11.594,19.643,8.677,5.833,-1.578,-5.797
17.04,22.35,16.411,7.165,-0.546,-5.804
19.165,22.393,21.391,7.693,0.215,-5.397
21.254,19.751,25.275,7.66,0.812,-4.52
21.146,13.722,26.557,7.135,1.847,-3.23
19.814,2.609,24.567,5.831,1.497,-2.083
15.652,-2.47,18.505,4.057,1.635,-2.066
17.648,-5.482,18.619,2.337,2.129,-1.719
18.234,-5.754,21.74,0.104,1.647,-1.037
18.076,-2.367,29.218,-2.809,0.705,-0.378
17.601,10.517,40.948,-4.988,-1.355,0.708
19.639,26.048,55.344,-6.614,-3.036,2.544
17.486,41.136,57.607,-7.983,-3.794,4.343
16.769,50.9,49.256,-8.473,-2.954,5.828
15.941,52.625,33.278,-6.788,-1.793,6.499
14.572,43.259,16.208,-4.279,0.271,5.914
15.079,26.654,1.994,-2.382,1.556,4.38
15.479,11.343,-6.095,-0.586,1.58,2.695
15.23,0.736,-5.934,0.98,0.467,0.832
15.119,-3.623,-1.572,1.459,-0.871,-0.434
14.699,-2.35,0.029,1.256,-2.067,-1.241
9.647,2.444,-0.878,1.966,-2.573,-2.197
6.51,7.396,0.6,3.17,-2.227,-3.692
5.389,14.724,4.604,4.731,-1.027,-5.088
8.009,22.599,12.983,6.061,1.446,-5.238
11.74,25.697,20.113,7.034,2.432,-4.77
14.844,25.52,25.036,7.492,2.982,-3.696
16.009,21.355,28.061,7.312,2.958,-2.398
17.193,12.912,29.071,6.201,2.755,-0.998
14.594,1.719,25.796,4.453,1.648,-0.522
13.358,-4.974,25.368,2.022,1.366,-0.185
15.079,-7.11,32.009,-1.043,0.158,0.056
18.088,-1.184,43.816,-3.864,-1.084,1.116
21.022,11.778,55.341,-6.245,-2.637,2.851
24.623,29.326,64.395,-7.99,-3.062,4.605
25.995,45.182,60.462,-8.838,-1.882,6.13
27.51,51.844,44.874,-7.272,-0.042,7.251
26.254,46.701,27.512,-4.679,1.585,7.136
24.036,31.228,12.224,-2.801,2.479,5.423
21.712,14.73,-2.225,-1.105,1.855,3.46
19.312,1.599,-6.259,0.815,0.334,1.533
14.535,-4.776,-2.368,1.518,-1.296,-0.29
11.931,-4.502,-0.344,1.406,-2.555,-1.949
9.799,0.613,0.074,2.178,-3.048,-3.133
7.494,5.179,1.558,3.101,-2.829,-4.488
7.072,9.198,5.019,4.04,-2.046,-5.684
8.213,13.984,7.746,4.786,-0.446,-6.316
11.174,17.858,11.556,5.284,1.059,-6.094
11.698,20.978,14.116,5.378,2.613,-5.349
12.169,21.681,16.525,5.607,4.003,-4.201
13.019,20.377,18.697,5.589,5.049,-3.051
14.996,14.72,22.058,5.044,5.133,-1.794
16.691,6.639,25.557,3.456,4.156,-1.045
21.838,1.356,33.069,0.996,2.239,0.275
23.651,5.617,45.291,-1.852,-0.164,2.051
22.781,14.691,56.391,-4.692,-2.396,3.941
21.129,29.845,65.788,-7.164,-3.997,5.288
19.829,46.886,66.478,-8.555,-3.551,6.703
20.675,57.634,54.504,-8.441,-1.545,7.463
22.78,55.017,35.243,-6.634,0.375,7.402
24.08,44.805,17.48,-4.267,1.203,6.371
23.557,29.694,1.653,-1.846,1.257,4.449
22.81,15.931,-5.812,0.362,0.361,2.281
18.189,6.596,-4.03,2.394,-1.245,0.084
15.334,2.845,0.974,3.231,-2.373,-1.798
14.992,2.498,5.247,3.741,-2.264,-2.69
15.203,3.915,7.537,4.209,-1.815,-2.447
14.035,4.846,9.246,4.954,-1.691,-2.041
12.598,4.984,10.925,5.545,-1.273,-1.738
11.281,5.493,11.658,6.111,-0.957,-1.601
8.726,7.383,11.733,6.631,-0.94,-1.959
5.946,10.482,12.496,7.234,-0.117,-2.81
3.775,16.307,15.099,7.774,1.835,-3.965
11.664,19.467,21.436,7.983,1.65,-4.776
17.203,16.497,26.662,5.974,1.099,-4.527
28.164,15.178,32.319,3.078,-0.434,-2.798
29.378,21.03,41.797,0.01,-2.54,-0.379
31.599,25.353,52.291,-3.482,-5.606,2.692
24.498,36.689,59.262,-6.711,-6.492,5.59
20.517,53.558,63.706,-7.913,-6.351,7.542
12.178,66.173,60.333,-8.414,-4.456,8.286
15.628,67.803,43.201,-8.042,-2.744,8.071
15.758,63.725,21.72,-5.699,-0.811,6.841
15.94,51.476,3.648,-2.806,0.57,4.633
17.732,37.441,-6.485,0.18,1.006,1.977
19.001,24.159,-7.886,3.018,0.408,-0.412
17.868,13.279,-0.298,4.897,-0.058,-1.777
16.938,6.535,7.423,5.194,-0.889,-2.374
15.171,3.939,11.382,5.017,-1.12,-2.211
11.335,2.927,11.264,4.856,-0.902,-1.731
7.665,3.349,9.699,4.97,-0.577,-1.803
4.45,5.93,8.58,5.448,0.038,-2.684
3.149,12.063,9.261,6.162,1.378,-4.051
2.23,20.957,13.961,6.792,3.268,-5.176
10.854,22.751,19.393,6.773,3.598,-5.252
13.67,22.366,23.806,5.348,2.393,-5.023
25.683,17.167,27.52,3.273,1.544,-3.476
31.969,12.395,33.18,0.623,-1.046,-0.681
37.504,9.149,39.969,-2.253,-4.078,2.488
31.661,18.031,48.643,-5.06,-5.611,4.74
30.409,31.578,55.789,-6.587,-4.909,6.972
22.062,46.177,54.821,-7.665,-3.736,8.252
21.552,52.156,43.016,-7.497,-1.076,8.381
19.853,49.079,26.219,-5.881,1.01,7.337
20.869,37.528,8.922,-3.599,1.99,5.536
22.99,22.367,-4.8,-1.518,2.096,3.322
22.896,9.592,-9.428,0.622,0.876,1.141
19.279,2.358,-5.622,2.048,-0.538,-0.681
16.922,0.485,-1.297,2.431,-1.875,-1.957
13.116,2.614,1.034,2.856,-2.211,-2.736
9.253,6.164,2.355,3.683,-2.086,-3.469
5.988,11.699,4.141,4.788,-1.238,-4.437
5.252,20.062,8.296,5.984,0.123,-5.339
7.088,26.0,14.04,6.854,2.292,-5.326
9.544,28.44,18.299,7.136,3.04,-4.802
10.146,28.897,22.11,7.141,3.714,-4.004
11.466,25.528,25.728,6.748,4.43,-2.964
13.23,15.993,26.715,5.64,4.057,-1.995
15.576,6.479,27.102,3.696,2.034,-1.718
20.211,1.626,30.301,1.207,0.85,-0.95
23.754,4.732,38.67,-1.704,-1.206,0.402
26.459,12.332,48.711,-4.558,-3.942,2.302
26.874,25.593,58.988,-6.942,-5.706,4.387
24.295,43.628,67.171,-8.338,-6.488,6.417
19.116,57.335,64.333,-8.838,-5.366,7.603
18.149,61.103,50.002,-8.154,-3.245,7.856
16.597,58.619,30.054,-6.45,-1.118,6.874
16.06,50.188,10.773,-4.022,0.694,5.151
17.621,35.864,-4.288,-1.185,1.867,3.06
19.899,22.555,-7.304,1.481,1.285,1.318
19.284,12.487,-3.903,3.325,0.233,0.406
18.096,5.573,2.595,4.059,-0.892,0.216
16.054,1.668,7.835,4.078,-2.012,0.475
12.825,-0.485,9.846,3.694,-2.559,1.015
8.874,-2.591,10.098,3.353,-2.988,1.257
5.518,-5.606,9.214,2.879,-2.877,1.018
4.171,-7.805,6.713,2.505,-2.502,0.675
2.044,-9.53,4.174,2.263,-2.31,0.069
0.15,-8.672,1.914,1.991,-1.446,-1.055
-1.514,-2.473,-0.859,2.157,-0.052,-2.914
0.481,5.885,-0.345,3.354,0.997,-4.712
4.786,17.617,9.161,4.783,3.002,-6.153
16.72,18.749,23.24,4.907,2.08,-5.977
29.286,14.941,31.891,3.686,0.415,-4.588
32.42,11.949,43.908,1.818,-1.98,-1.783
30.154,10.993,57.966,-1.196,-4.045,0.851
25.121,10.839,63.75,-4.688,-7.234,3.514
13.6,22.966,61.23,-7.018,-6.326,5.036
4.314,38.214,59.222,-7.978,-4.961,5.734
6.978,48.332,47.589,-8.438,-2.931,5.656
11.638,51.964,27.632,-7.376,-1.384,5.563
15.897,46.51,9.292,-5.039,0.118,4.836
19.19,36.089,-0.609,-2.142,0.212,3.58
20.612,24.005,-2.008,0.56,-0.922,2.584
16.898,11.925,1.57,2.712,-1.914,1.91
13.802,2.751,7.624,3.498,-2.804,1.342
9.991,-2.223,11.634,3.401,-3.624,0.819
7.653,-4.403,11.25,2.907,-4.119,0.443
3.786,-4.384,7.054,2.695,-3.434,-0.265
3.176,-3.468,4.097,3.029,-2.778,-1.267
2.848,-1.878,2.825,3.668,-2.218,-2.556
2.46,3.131,3.454,4.278,-1.318,-4.296
2.369,11.569,5.953,5.21,0.541,-5.785
2.904,22.883,12.617,6.213,2.72,-6.845
10.442,26.129,19.944,6.687,2.338,-6.945
14.334,25.989,25.516,5.64,2.214,-6.148
27.392,19.483,31.605,3.669,0.959,-3.917
31.933,15.764,37.722,0.948,-1.803,-0.649
37.603,12.038,43.62,-2.139,-4.484,2.705
30.865,19.86,51.169,-5.262,-4.783,5.215
27.549,32.635,59.819,-6.939,-6.218,6.692
16.355,48.018,59.505,-7.819,-5.404,7.888
15.333,54.666,50.076,-8.147,-3.314,7.852
11.871,54.87,32.21,-7.127,-1.935,7.106
12.859,47.537,12.732,-4.854,-0.892,5.847
14.42,35.368,-3.117,-2.231,0.789,4.498
16.388,21.894,-8.571,0.343,0.679,2.442
16.365,11.051,-6.297,2.393,-0.114,0.858
15.74,3.368,-0.541,3.298,-1.088,-0.118
14.68,-0.579,4.3,3.486,-2.028,-0.638
13.375,-3.132,7.106,3.38,-2.685,-0.661
10.959,-4.388,7.236,3.234,-2.871,-0.521
7.76,-5.658,6.441,3.361,-3.052,-0.691
5.919,-6.672,6.115,3.493,-2.967,-1.075
4.596,-7.558,5.695,3.519,-2.563,-1.608
3.508,-6.028,4.21,3.397,-1.916,-2.464
2.158,-1.121,3.149,3.371,-1.169,-3.976
1.799,6.964,3.617,3.731,0.358,-5.455
4.831,18.935,8.571,4.654,2.55,-6.827
14.695,22.282,17.114,4.926,2.873,-6.871
23.067,18.99,23.73,4.159,2.542,-5.897
31.258,15.759,32.519,2.856,0.646,-3.25
33.148,14.975,45.147,0.486,-1.984,-0.266
30.54,13.787,55.112,-2.899,-5.093,3.186
20.012,23.988,60.349,-5.658,-6.493,5.439
11.518,40.41,62.129,-7.286,-6.488,7.161
7.102,50.772,55.228,-8.385,-3.866,7.737
9.643,52.103,37.528,-7.62,-1.663,7.36
13.446,46.492,17.869,-5.358,-0.031,5.968
17.017,35.286,2.817,-2.688,0.48,3.829
18.702,23.096,-4.501,-0.014,0.163,1.201
18.604,15.445,-4.172,2.743,-0.881,-1.062
15.906,10.401,1.194,4.346,-1.605,-2.585
13.515,9.492,7.675,5.01,-1.589,-3.385
12.365,9.933,11.192,5.241,-0.418,-3.143
12.656,9.857,13.253,5.482,0.684,-2.268
10.741,7.05,14.785,5.506,1.122,-1.46
9.569,4.389,16.867,5.11,1.791,-0.839
8.854,1.121,16.995,4.192,1.977,-0.726
8.001,0.67,15.357,2.94,2.11,-1.24
8.103,3.53,10.975,2.164,2.747,-2.126
10.168,8.233,6.223,2.334,3.471,-3.052
16.343,14.474,6.312,3.148,3.545,-3.406
22.525,16.104,12.216,3.301,2.652,-2.515
27.455,14.744,20.127,2.77,0.694,-0.692
30.818,14.318,33.847,1.076,-2.11,1.989
31.153,20.979,48.654,-1.518,-4.178,4.641
26.341,27.777,57.233,-4.757,-4.958,6.781
19.332,38.593,58.221,-6.918,-4.027,7.427
17.314,50.8,53.119,-8.035,-1.768,6.759
18.122,56.44,36.836,-7.589,0.511,5.311
17.257,51.34,17.628,-5.744,2.23,3.612
18.09,42.574,3.468,-2.754,2.805,1.492
21.525,32.975,-3.86,0.375,2.615,-0.08
21.799,22.047,-4.51,3.218,1.27,-0.669
16.835,13.98,2.18,4.8,0.33,-1.034
14.697,8.255,9.756,5.001,-0.263,-1.061
12.344,5.0,13.427,4.349,-0.315,-0.644
9.74,2.39,12.918,3.752,0.167,-0.09
7.049,0.558,10.752,3.595,1.166,0.342
6.57,-0.933,8.853,3.927,1.779,0.403
9.237,-2.563,9.39,4.331,2.506,0.246
14.893,-7.513,10.736,3.818,2.34,0.684
17.377,-10.436,10.669,2.17,1.077,1.327
17.252,-9.596,10.181,0.13,-0.077,2.002
15.656,-8.263,9.781,-1.523,-0.976,2.629
10.039,-5.875,7.256,-2.91,-1.874,2.502
-0.101,3.096,2.721,-2.74,-1.249,0.55
-2.123,11.433,1.466,-0.711,0.926,-1.836
5.383,13.633,10.028,1.789,2.459,-3.855
13.343,8.402,20.545,1.983,1.568,-4.251
19.384,6.46,29.055,0.769,0.094,-2.996
22.64,7.382,45.085,-1.225,-2.16,-0.659
20.001,10.437,58.926,-4.138,-4.71,2.06
11.467,17.643,58.399,-7.283,-5.328,4.179
11.043,31.126,51.382,-8.633,-3.055,4.734
12.686,41.358,39.667,-7.793,-1.219,4.497
14.625,43.571,19.28,-5.448,0.481,3.839
16.8,39.55,4.534,-2.328,1.224,2.053
22.066,35.041,-0.067,1.142,1.228,0.625
19.291,28.696,0.769,4.26,0.184,-0.124
14.809,21.234,7.387,6.277,-0.235,-0.648
13.701,16.014,16.055,6.933,-0.76,-0.903
11.62,14.455,19.811,6.923,-0.686,-0.656
5.722,13.551,19.836,6.808,-0.665,-0.974
1.435,16.489,20.513,7.03,0.678,-2.181
3.381,20.835,25.728,7.189,2.3,-3.325
7.036,22.037,31.004,7.055,3.555,-3.973
11.768,18.434,33.962,6.652,4.614,-3.84
20.123,10.713,33.96,5.275,4.724,-3.364
27.662,2.585,32.631,3.293,3.032,-1.823
29.432,-2.678,32.396,0.774,0.588,0.05
28.627,-3.863,37.289,-2.091,-1.584,1.897
26.198,3.517,46.797,-4.798,-4.056,3.342
20.83,19.077,58.286,-6.776,-5.845,4.917
14.386,34.519,63.067,-8.135,-5.794,6.01
11.658,43.041,55.729,-8.357,-4.287,6.309
11.993,47.621,39.167,-6.808,-2.759,5.706
12.044,44.775,19.82,-4.462,-0.64,4.555
14.657,34.898,3.019,-1.715,1.412,3.04
18.961,22.162,-5.413,0.944,1.723,1.41
20.197,13.013,-5.631,3.037,1.032,0.3
19.697,6.383,-0.347,3.953,0.024,0.21
19.347,3.105,4.949,3.965,-1.439,0.763
14.293,1.549,7.182,3.623,-2.789,1.427
8.773,1.146,7.051,3.425,-3.05,1.716
5.031,0.755,6.148,3.271,-3.305,1.148
2.251,0.955,4.678,3.188,-2.79,-0.249
1.427,2.257,4.015,3.099,-2.125,-2.349
1.094,7.98,4.781,3.128,-0.673,-4.554
3.375,17.302,8.222,3.802,1.437,-6.396
7.163,27.07,15.672,4.874,3.619,-7.316
14.781,29.262,22.658,5.282,3.674,-6.919
19.833,28.059,26.128,4.941,4.234,-5.276
29.634,20.645,29.386,3.926,3.185,-2.585
33.252,14.04,36.849,1.4,0.7,0.742
30.561,11.788,44.649,-2.093,-2.563,3.545
21.678,21.809,52.738,-4.884,-4.042,5.526
18.089,37.149,63.377,-6.81,-5.734,7.155
10.929,51.608,64.149,-8.229,-5.521,7.956
10.874,58.717,50.871,-8.117,-3.77,7.814
13.264,57.89,30.2,-6.306,-2.194,6.836
17.265,48.725,10.576,-3.902,-0.147,5.208
18.901,33.818,-4.945,-1.223,0.673,2.641
21.346,21.114,-8.689,1.434,0.68,0.418
19.382,10.875,-4.649,3.195,-0.51,-0.992
18.002,4.05,2.055,3.728,-1.041,-1.171
16.09,0.252,7.35,3.642,-1.718,-0.46
13.039,-0.911,8.576,3.212,-1.53,0.88
7.871,-1.901,6.631,2.848,-1.78,1.615
3.742,-2.061,4.098,2.747,-1.665,1.338
1.407,-2.442,2.039,2.712,-1.284,0.108
0.261,-0.479,0.504,2.539,-0.906,-2.013
0.026,8.013,1.122,2.913,-0.034,-4.279
2.527,19.152,6.902,4.113,2.064,-5.846
8.399,25.878,14.167,5.062,3.573,-6.222
13.626,28.236,20.058,5.446,3.879,-5.426
18.733,25.917,25.215,5.529,4.065,-3.431
26.294,14.987,32.226,4.28,2.716,-0.854
29.51,5.298,38.749,1.032,-0.32,1.712
27.603,7.678,47.343,-2.298,-3.055,4.082
27.007,19.288,57.478,-4.992,-4.614,5.955
25.245,34.312,64.59,-7.22,-5.745,7.305
20.82,49.127,60.429,-8.594,-4.491,8.171
20.212,57.991,44.988,-7.953,-2.69,7.937
19.907,56.358,23.893,-6.025,-0.745,6.589
18.687,46.365,4.88,-3.387,0.509,4.563
18.884,33.572,-6.519,-0.425,1.205,2.133
21.558,21.741,-7.674,2.384,0.272,0.22
20.089,11.173,-1.983,4.004,-0.91,-0.385
17.991,4.002,5.436,4.347,-2.161,-0.278
14.796,-0.266,9.648,3.918,-2.509,0.385
10.985,-2.468,9.057,3.139,-2.755,1.096
3.967,-3.513,5.584,2.574,-2.798,0.885
-0.453,-3.193,2.507,2.319,-2.19,-0.419
-1.765,-1.889,0.236,2.287,-0.943,-2.226
-1.728,4.258,0.129,2.585,0.173,-4.356
0.596,13.947,3.107,3.685,1.907,-6.129
5.647,24.192,10.003,4.636,3.014,-7.448
13.885,30.487,16.478,5.036,4.063,-7.61
19.404,30.778,19.89,5.027,3.584,-6.748
27.092,24.424,22.011,4.481,3.887,-4.325
32.762,15.201,24.932,2.491,2.36,-1.358
32.039,10.304,31.584,-0.463,0.185,1.693
26.603,12.775,41.095,-3.114,-2.348,4.333
22.95,23.569,53.158,-5.344,-3.365,6.52
17.437,37.784,60.418,-7.305,-4.837,7.502
13.309,49.155,58.01,-8.598,-3.815,7.588
14.836,53.381,42.091,-8.049,-2.153,6.998
16.413,50.863,22.048,-6.163,-0.33,5.812
17.462,41.405,4.244,-3.753,0.356,3.762
17.625,29.522,-6.302,-1.109,0.727,1.362
20.12,19.688,-7.311,1.711,0.09,-0.212
18.61,10.429,-1.942,3.551,-0.479,-0.693
16.823,3.859,4.744,4.076,-1.233,-0.61
15.37,0.074,8.702,3.845,-1.222,0.322
13.97,-2.393,9.266,3.251,-1.651,1.616
7.272,-4.689,6.586,2.578,-2.512,2.042
2.765,-5.423,2.881,2.128,-2.277,1.526
1.741,-5.391,0.198,2.075,-1.56,0.619
1.283,-3.772,-0.981,2.3,-1.335,-0.864
0.059,0.871,-0.955,2.908,-0.68,-2.883
1.453,8.431,0.918,4.126,0.701,-4.704
3.295,20.143,7.932,5.439,2.187,-6.14
12.135,27.3,19.42,6.574,3.503,-6.323
16.571,26.996,26.949,5.719,2.398,-5.671
29.24,21.547,31.643,4.078,0.675,-3.276
33.797,17.925,39.21,1.659,-1.498,0.135
36.847,11.887,48.963,-1.632,-3.999,3.597
31.032,15.146,53.515,-5.124,-7.001,5.876
29.106,26.622,57.345,-6.675,-6.535,7.825
21.707,39.191,57.39,-7.691,-4.854,8.642
21.678,46.043,46.033,-7.893,-3.246,8.359
20.062,48.566,26.007,-6.13,-1.869,7.578
18.215,42.367,7.473,-3.524,-0.313,6.158
17.278,31.94,-4.835,-0.746,0.367,4.002
16.295,22.263,-8.624,1.976,0.077,1.611
14.373,13.587,-4.723,3.913,-0.234,-0.318
14.567,7.288,1.512,4.536,-0.847,-1.591
14.382,4.1,6.49,4.465,-1.406,-2.228
13.977,2.489,10.088,4.225,-1.311,-2.161
13.641,-1.296,12.184,4.03,-0.697,-1.309
13.143,-4.802,10.804,3.611,-0.491,-0.227
11.148,-7.637,8.96,3.184,-0.372,0.605
9.528,-9.962,6.459,2.624,-0.135,0.961
8.445,-10.805,3.188,1.996,-0.435,0.897
5.839,-7.261,-0.001,1.521,-1.093,-0.021
2.008,-1.135,-0.523,1.797,-0.965,-1.889
2.355,5.579,0.249,2.711,0.312,-3.85
5.572,13.734,3.583,4.16,1.625,-5.414
12.677,19.674,14.023,5.485,2.711,-5.751
20.25,18.02,21.57,5.054,2.091,-5.052
27.3,14.383,28.063,3.701,0.44,-2.804
29.304,15.472,38.949,1.273,-1.843,0.112
26.001,17.325,50.869,-2.151,-3.891,3.423
17.272,24.324,55.644,-5.387,-5.871,5.714
12.602,39.517,59.134,-7.008,-5.614,7.411
13.519,52.279,54.194,-8.193,-3.603,8.162
15.725,56.726,35.83,-7.755,-2.314,7.905
18.048,54.369,14.161,-5.63,-1.156,6.654
20.845,44.37,-2.647,-2.986,-0.445,4.542
22.109,30.878,-10.971,-0.257,-0.066,2.07
20.316,16.897,-8.454,2.194,-0.956,0.305
16.605,5.932,0.15,3.248,-1.646,-0.652
14.477,-0.83,7.391,3.238,-2.27,-0.878
12.874,-3.708,9.19,2.679,-2.327,-0.25
7.817,-5.517,5.61,2.116,-2.451,0.363
3.218,-5.124,1.124,1.944,-2.293,0.078
2.136,-4.671,-0.971,2.062,-1.64,-0.73
2.211,-2.89,-1.559,2.276,-0.992,-1.809
2.479,0.319,-1.16,2.819,-0.211,-3.096
3.632,5.132,0.284,3.555,0.299,-4.603
3.505,12.992,2.465,4.514,1.464,-6.046
4.693,25.682,7.399,5.751,3.066,-7.237
10.635,31.204,12.571,6.735,3.855,-7.145
12.658,31.357,16.49,5.329,2.496,-6.236
19.627,27.495,19.393,3.957,3.536,-3.949
29.373,19.983,22.219,1.671,1.538,-1.117
33.858,13.156,26.403,-1.261,-1.098,2.363
32.702,15.065,33.821,-4.234,-3.177,4.849
33.459,24.597,40.684,-5.302,-2.565,6.909
28.879,35.525,46.477,-6.831,-3.846,8.05
21.465,46.074,48.724,-7.785,-2.091,8.25
26.084,51.472,38.519,-8.346,-0.377,7.346
23.22,53.023,18.036,-7.027,0.616,6.307
20.957,46.376,2.629,-4.347,1.433,4.788
20.502,37.633,-6.86,-1.327,1.494,2.632
23.793,27.477,-10.18,1.488,0.561,1.049
16.486,16.068,-6.085,3.857,-0.7,0.555
14.941,6.005,3.827,4.404,-1.286,0.1
14.232,-0.376,9.541,3.781,-1.92,0.066
11.288,-4.293,10.398,2.978,-2.217,0.463
5.387,-6.084,7.343,2.394,-2.375,0.621
1.819,-6.752,3.588,2.348,-1.921,-0.091
2.658,-7.434,2.112,2.647,-1.288,-0.656
2.3,-5.934,1.181,2.796,-1.229,-1.682
1.959,-1.109,0.727,3.186,-0.411,-3.071
3.67,5.46,1.562,4.077,0.57,-4.59
6.984,14.115,6.756,5.23,2.151,-5.869
13.443,17.795,14.864,6.02,3.701,-5.944
18.816,17.707,22.522,5.338,2.81,-4.95
28.199,13.77,30.669,3.744,0.713,-2.637
28.127,12.561,41.647,1.07,-1.348,0.407
24.914,10.858,53.032,-2.405,-4.319,3.231
16.826,18.099,59.136,-5.699,-7.193,5.194
13.808,29.677,61.314,-7.378,-6.567,6.716
9.291,40.996,57.383,-8.39,-4.489,7.313
13.454,46.479,43.524,-8.225,-2.719,7.018
17.752,47.484,23.076,-6.495,-0.871,6.595
21.217,40.555,5.112,-4.035,0.397,5.232
22.248,28.98,-4.894,-1.245,0.592,3.361
21.949,17.979,-5.86,1.288,-0.657,1.861
18.325,8.013,-1.624,2.843,-1.724,1.229
14.769,0.953,4.717,3.112,-2.842,0.87
11.35,-2.701,8.634,2.649,-3.408,0.924
7.636,-3.952,8.223,1.949,-3.545,1.114
3.239,-4.366,3.793,1.649,-3.103,0.823
1.605,-4.432,1.153,1.914,-2.469,-0.134
1.935,-4.795,0.287,2.269,-1.991,-1.176
1.917,-3.333,0.174,2.594,-1.588,-2.596
1.425,2.096,0.906,3.113,-0.798,-4.344
1.561,11.807,4.538,4.247,1.033,-5.808
6.942,25.35,15.042,5.305,2.904,-6.346
15.555,28.616,25.423,5.573,2.355,-6.007
23.409,25.245,29.167,4.841,3.133,-4.351
31.621,21.342,35.066,3.332,1.554,-1.202
35.644,17.598,42.339,0.36,-0.592,2.29
31.292,12.416,44.73,-3.133,-3.12,5.075
20.82,20.847,46.508,-5.754,-3.244,6.515
14.867,33.956,51.381,-7.344,-3.528,7.212
13.542,44.374,48.161,-8.443,-1.721,6.882
16.505,49.258,33.016,-7.924,-1.08,6.295
17.193,48.19,14.749,-5.526,0.014,5.419
21.268,39.483,0.75,-2.554,0.934,4.508
23.903,27.595,-5.416,0.251,-0.127,3.158
21.22,15.735,-5.38,2.501,-1.348,2.416
15.05,5.279,1.426,3.564,-2.223,1.606
12.66,-1.467,7.604,3.17,-3.24,0.857
9.236,-4.76,8.749,2.282,-3.601,0.502
5.491,-4.393,5.673,1.74,-3.108,0.342
2.605,-4.284,2.579,1.848,-2.572,-0.517
2.891,-3.736,1.475,2.327,-1.678,-1.48
2.871,-2.107,1.146,2.913,-1.131,-2.729
3.066,3.81,2.035,3.748,-0.188,-4.349
3.556,11.703,6.113,4.943,1.566,-5.783
11.456,18.698,17.524,6.078,3.478,-5.454
15.424,18.801,27.066,5.815,2.077,-5.029
24.817,13.483,33.048,4.481,2.03,-3.304
29.307,8.296,42.346,2.107,-0.176,-0.368
29.454,5.542,53.382,-1.351,-3.259,2.585
23.59,6.449,56.364,-4.843,-6.271,4.265
21.825,16.173,58.404,-7.038,-5.346,6.201
17.732,30.098,60.085,-8.292,-4.695,7.272
20.833,40.034,49.889,-8.556,-2.106,7.605
25.14,42.097,31.214,-6.972,0.049,7.701
25.863,36.879,14.127,-4.722,1.39,6.887
24.103,25.532,1.167,-2.574,1.379,4.827
22.039,14.334,-5.926,-0.495,0.026,2.92
16.702,4.206,-5.288,1.281,-1.557,1.285
12.338,-1.903,-1.35,1.887,-2.907,-0.276
10.061,-3.262,1.285,2.008,-3.612,-1.473
9.98,-0.681,2.621,2.41,-3.55,-1.979
7.744,3.056,2.34,3.168,-2.891,-2.937
6.616,9.101,3.959,4.393,-2.064,-4.386
7.979,16.185,8.763,5.695,-0.746,-5.795
11.992,22.096,17.137,6.817,1.276,-6.174
15.7,24.243,23.659,7.538,2.806,-5.432
16.959,22.241,27.757,7.718,3.592,-4.116
19.698,13.878,30.863,6.692,4.199,-2.377
20.099,4.358,32.874,4.686,3.466,-0.487
17.657,-2.84,33.311,1.521,1.426,0.763
15.405,-2.738,38.306,-1.75,-0.774,1.49
15.786,2.944,47.951,-4.767,-2.371,2.239
16.594,16.015,58.235,-7.024,-4.32,3.067
16.159,32.328,61.967,-8.511,-5.143,4.351
14.628,45.234,55.821,-8.582,-4.372,5.602
14.298,50.37,40.467,-7.187,-2.75,5.946
13.968,48.516,21.972,-4.715,-1.129,5.431
13.814,38.69,5.597,-1.88,0.506,4.399
15.704,23.102,-3.681,0.566,1.267,2.961
17.13,9.825,-4.89,2.476,0.872,1.749
16.148,0.909,-0.849,3.008,-0.183,1.24
14.352,-3.92,3.154,2.467,-1.299,1.319
10.645,-4.719,3.691,1.625,-2.225,1.6
6.438,-3.385,1.845,1.289,-2.404,1.472
4.283,-1.755,0.091,1.433,-2.346,0.669
3.268,-0.204,-0.277,2.061,-2.047,-0.678
2.856,3.816,0.629,2.928,-1.463,-2.526
3.844,9.856,3.758,4.319,-0.457,-4.391
5.65,18.206,9.992,5.7,1.545,-5.689
11.818,22.894,20.658,6.883,3.188,-5.193
14.459,22.971,27.821,6.881,3.445,-4.336
19.105,16.143,32.146,5.895,3.459,-2.775
23.812,7.662,36.481,3.569,2.095,-0.568
25.901,0.391,42.282,0.101,-0.673,1.856
22.981,1.112,46.906,-3.392,-3.431,3.196
22.573,9.72,55.107,-5.945,-4.62,4.584
18.835,25.974,62.346,-7.756,-5.611,5.858
15.034,40.243,58.456,-8.814,-4.203,6.897
15.463,47.165,42.991,-7.613,-2.489,7.063
15.776,44.582,24.67,-5.223,-0.363,6.521
16.996,34.435,8.372,-2.803,0.784,5.47
19.43,19.665,-3.524,-0.756,1.489,4.27
19.216,6.751,-6.472,1.036,0.573,2.929
16.088,-1.635,-2.721,1.534,-0.522,2.033
13.096,-4.543,0.018,1.014,-1.984,1.325
9.437,-3.505,0.291,0.689,-2.676,0.739
6.804,-0.862,-0.345,0.936,-2.99,-0.134
4.853,1.644,-0.581,1.623,-3.035,-1.542
4.156,5.085,0.33,2.621,-2.425,-3.46
4.936,10.679,3.467,4.126,-0.917,-5.122
6.148,18.6,9.518,5.523,1.019,-6.2
9.523,24.067,19.564,6.721,3.32,-5.377
13.102,25.703,27.569,7.173,3.609,-3.742
13.651,21.097,32.879,7.064,3.826,-1.983
17.256,11.212,37.578,5.147,2.387,-0.086
20.063,0.26,40.968,2.006,0.288,2.058
20.708,-2.175,43.433,-1.487,-2.268,3.352
20.723,0.047,49.385,-4.419,-2.812,4.223
25.079,11.396,58.093,-7.03,-4.013,5.164
23.84,27.946,60.065,-8.487,-4.258,6.25
21.601,41.367,51.122,-8.26,-3.384,7.002
18.489,45.049,35.312,-6.367,-1.973,6.639
17.026,44.132,18.236,-3.834,-0.486,5.842
14.857,35.843,2.363,-1.034,0.985,4.865
14.802,21.969,-6.333,1.545,1.995,3.399
15.888,9.813,-5.288,3.155,1.543,2.024
16.18,1.564,-1.167,3.314,0.609,1.34
14.581,-2.966,2.379,2.733,-0.63,1.144
11.527,-4.677,3.644,1.958,-1.53,1.234
8.179,-4.18,3.122,1.513,-2.15,1.217
5.02,-4.16,1.401,1.564,-2.178,0.846
4.617,-3.621,0.768,1.956,-2.043,0.122
3.786,-2.418,0.738,2.518,-2.218,-1.213
2.501,1.751,0.76,3.226,-1.667,-3.119
3.398,9.128,3.158,4.405,-0.428,-4.869
7.436,19.155,13.176,5.659,1.795,-5.712
13.633,20.357,23.245,6.006,1.852,-5.709
18.136,16.346,26.482,5.361,2.66,-4.659
27.026,10.15,30.329,3.932,1.427,-2.363
30.002,3.701,36.313,1.412,-0.266,0.506
30.179,0.369,41.278,-2.081,-3.406,2.876
24.517,9.782,45.49,-4.872,-4.68,4.77
21.289,23.854,52.029,-6.742,-5.297,6.4
17.649,35.971,52.06,-8.045,-3.623,7.527
19.3,43.447,40.737,-7.932,-1.964,7.775
19.047,42.133,22.229,-5.868,-0.257,7.286
20.611,32.919,6.136,-3.276,1.473,6.055
22.707,20.503,-3.866,-0.916,1.548,4.235
21.322,9.512,-6.97,1.119,0.527,2.485
17.104,0.997,-3.335,2.165,-0.862,1.275
14.103,-3.859,1.23,2.099,-1.804,0.563
11.268,-5.366,3.184,1.592,-2.843,0.173
7.966,-4.164,2.991,1.464,-3.281,-0.06
5.443,-2.707,2.192,1.836,-3.087,-0.659
3.928,-1.069,2.076,2.471,-2.845,-1.845
3.069,2.518,2.165,3.302,-2.24,-3.579
2.695,9.544,3.992,4.585,-0.785,-5.295
5.768,18.893,11.628,5.845,1.745,-6.067
10.903,22.742,20.764,6.829,3.433,-5.573
13.293,22.72,26.139,6.662,3.459,-4.604
18.608,16.504,29.933,5.712,3.987,-2.618
22.501,8.468,33.787,3.564,2.702,-0.088
22.529,0.76,33.204,0.597,0.451,1.943
20.066,0.344,32.707,-2.725,-1.884,2.995
19.562,3.79,38.202,-5.145,-2.45,3.931
16.732,16.015,47.851,-7.025,-4.309,4.398
13.482,29.981,51.661,-8.244,-4.542,5.186
14.934,40.043,47.731,-8.77,-3.841,5.796
14.666,46.16,35.005,-7.647,-2.63,6.125
15.332,47.328,19.377,-5.194,-1.214,6.02
15.807,39.649,4.453,-2.246,0.254,5.339
18.69,25.518,-4.115,0.319,0.713,3.761
16.988,13.496,-5.742,2.469,-0.013,2.442
15.352,3.239,-1.126,3.298,-0.829,1.538
13.346,-2.356,3.235,2.894,-1.766,1.083
10.714,-4.105,4.469,2.073,-2.532,1.048
6.886,-3.407,3.408,1.729,-2.596,0.965
4.657,-3.712,2.121,1.862,-2.35,0.438
3.533,-3.43,1.426,2.081,-2.183,-0.569
2.652,-2.455,1.531,2.454,-1.798,-1.984
2.313,0.751,1.526,2.969,-1.05,-3.775
2.725,7.932,3.595,3.758,0.066,-5.432
5.56,17.463,11.149,4.967,2.123,-6.189
12.219,20.59,18.409,5.807,2.948,-5.924
15.554,20.623,22.647,5.537,2.568,-5.088
22.227,16.688,25.459,4.639,2.474,-2.973
26.686,10.148,27.833,3.084,1.103,-0.409
26.684,4.646,28.345,0.36,-1.61,1.697
22.458,5.736,31.497,-2.592,-3.21,3.339
19.946,12.614,39.411,-4.745,-4.044,4.829
14.312,26.092,47.267,-6.488,-5.302,6.009
10.555,37.177,48.225,-7.944,-4.559,6.938
10.931,43.442,38.662,-8.286,-2.851,7.163
12.853,46.056,22.337,-6.782,-1.222,6.512
16.633,41.709,5.703,-4.366,0.347,5.417
19.681,29.997,-5.585,-1.764,1.147,3.534
22.89,18.968,-8.803,0.776,0.5,1.829
21.302,9.286,-5.516,2.623,-1.004,0.951
17.445,2.853,1.77,3.148,-2.25,0.737
12.627,-0.864,6.926,2.878,-3.066,0.859
8.161,-2.295,7.673,2.392,-2.844,1.091
4.216,-3.433,4.959,2.068,-2.304,0.91
2.666,-4.672,2.835,2.131,-1.816,0.246
3.288,-6.052,1.533,2.3,-1.213,-0.46
4.325,-6.384,0.952,2.48,-0.916,-1.229
4.78,-4.878,0.72,2.725,-0.776,-2.226
4.366,-0.017,1.706,3.158,-0.537,-3.689
4.513,7.661,3.162,3.942,0.251,-5.185
5.35,18.707,6.681,5.111,1.717,-6.63
13.232,28.603,13.885,6.278,2.548,-7.329
19.085,29.604,19.11,5.787,1.355,-6.624
31.476,26.363,21.33,4.566,0.977,-4.012
35.9,24.37,26.21,2.757,-1.197,-0.641
38.519,20.755,32.972,0.324,-3.468,2.851
32.97,23.443,36.853,-2.784,-4.789,5.808
30.087,35.262,40.68,-4.654,-3.792,7.852
18.136,47.594,42.822,-6.083,-3.207,8.589
19.584,53.222,31.506,-6.641,-0.179,8.094
18.727,52.04,13.635,-5.633,1.561,6.709
21.578,40.294,-0.182,-3.526,1.797,4.911
21.654,25.401,-7.747,-1.096,1.514,3.052
23.382,11.366,-10.694,0.828,0.474,1.559
16.883,1.329,-5.163,1.84,-1.554,0.671
12.837,-3.74,1.603,1.706,-2.7,0.417
7.157,-4.103,3.516,1.353,-2.439,0.353
4.982,-3.184,1.366,1.139,-1.967,0.221
3.597,-2.233,-0.657,1.604,-1.491,-0.406
4.354,-2.252,-0.88,2.266,-0.969,-1.274
4.809,-1.02,0.243,2.817,-0.62,-2.505
4.948,3.226,1.357,3.435,-0.048,-4.052
5.593,10.609,4.099,4.471,0.695,-5.551
7.621,20.646,9.075,5.574,2.43,-6.679
13.132,27.515,13.636,6.638,2.531,-7.008
17.378,28.206,17.127,6.678,1.785,-6.422
24.828,25.053,19.446,5.66,2.065,-4.082
29.604,20.004,20.953,3.723,1.163,-1.035
31.559,15.701,22.102,1.004,-0.998,2.149
29.095,17.006,25.181,-2.19,-1.814,4.851
27.471,25.329,31.016,-4.714,-1.862,7.135
21.768,36.75,38.29,-6.45,-3.127,8.202
17.947,47.679,40.69,-7.766,-2.391,8.648
19.407,53.287,31.795,-8.146,-0.726,8.572
20.29,52.712,16.745,-6.54,0.043,7.708
20.188,44.857,4.403,-3.824,0.556,6.085
22.588,31.41,-3.389,-1.294,0.479,4.042
22.496,17.311,-7.027,0.806,-0.493,2.471
17.078,6.245,-3.597,2.356,-2.102,1.065
12.425,-1.215,3.352,2.626,-2.469,0.321
10.157,-4.488,5.771,2.195,-2.545,0.159
6.428,-4.733,3.408,1.984,-2.156,0.299
4.847,-5.134,1.595,2.189,-2.178,0.028
3.686,-6.017,1.259,2.45,-2.128,-0.479
3.205,-6.117,1.721,2.592,-1.615,-1.317
2.804,-3.945,1.99,2.705,-1.218,-2.605
2.054,1.372,2.435,3.0,-0.569,-4.196
2.564,9.998,3.866,3.721,0.864,-5.845
8.473,19.542,10.718,4.963,3.061,-6.728
16.714,21.068,17.813,5.082,2.415,-6.081
21.024,19.7,20.497,4.446,2.509,-4.366
27.83,15.534,23.565,3.176,1.275,-1.764
30.198,10.846,28.257,1.057,-0.623,1.218
26.809,6.333,32.725,-2.145,-3.636,3.758
20.942,11.857,37.596,-4.581,-4.413,5.19
18.522,23.022,45.494,-6.341,-5.749,6.548
14.167,33.413,47.625,-7.686,-4.549,7.439
14.511,40.653,38.762,-8.101,-3.3,7.59
14.896,42.962,21.574,-6.391,-1.553,7.067
15.742,38.594,6.84,-3.625,0.243,6.014
18.023,26.595,-3.073,-1.022,1.537,4.324
18.502,15.271,-6.958,1.119,0.713,2.723
15.896,4.761,-3.716,2.532,-0.012,1.681
14.366,-2.132,2.245,2.447,-1.033,1.188
11.913,-4.694,4.51,1.624,-2.108,1.042
7.893,-3.651,2.885,1.133,-2.858,0.844
5.461,-1.874,0.925,1.377,-2.607,0.235
4.585,0.467,0.099,2.031,-2.581,-1.087
3.72,4.401,0.319,3.076,-2.236,-2.943
4.063,10.68,2.887,4.504,-1.135,-4.871
8.092,18.834,8.804,5.885,0.491,-6.053
8.082,27.93,16.911,6.993,2.377,-6.831
14.737,29.698,24.862,7.457,3.24,-6.051
18.066,26.207,28.863,6.443,3.239,-4.721
23.663,18.262,30.02,4.407,2.194,-2.52
25.352,9.229,29.313,1.967,0.816,-0.134
29.383,2.997,30.341,-1.171,-1.167,2.516
25.762,5.35,33.56,-4.193,-2.393,4.2
25.339,16.141,42.938,-6.096,-3.313,5.884
22.076,31.004,49.681,-7.431,-3.529,7.109
19.348,43.026,48.966,-8.484,-2.883,7.734
19.885,48.872,36.067,-8.122,-2.477,7.643
16.237,48.989,18.832,-5.946,-1.348,6.889
15.521,40.098,2.178,-3.212,0.492,5.713
15.982,25.979,-8.295,-0.63,1.267,3.897
15.888,13.539,-10.796,1.475,0.867,2.228
13.045,3.381,-6.397,2.614,0.496,1.121
14.012,-2.571,-0.726,2.319,-0.389,0.617
12.296,-4.9,2.035,1.606,-1.425,0.526
9.367,-4.341,2.144,1.04,-1.825,0.74
6.306,-3.489,-0.535,1.094,-2.238,0.561
5.385,-2.922,-1.12,1.737,-2.21,0.015
4.911,-2.592,-0.775,2.221,-2.213,-0.945
4.274,-0.127,-0.274,2.766,-2.121,-2.375
3.657,4.895,0.834,3.706,-1.526,-4.181
4.554,13.098,5.714,5.018,-0.136,-5.764
5.067,24.403,15.912,6.013,1.93,-6.408
11.29,28.037,25.935,6.869,2.735,-6.091
15.781,25.017,31.447,6.16,3.22,-4.906
24.041,18.867,36.775,4.251,2.303,-2.354
27.605,12.562,43.297,1.076,0.435,0.751
27.331,7.22,46.51,-2.416,-2.284,3.426
20.23,12.692,50.213,-5.638,-3.076,5.259
17.279,24.817,56.981,-7.494,-4.047,5.755
10.711,38.628,58.527,-8.541,-4.057,5.713
11.045,48.395,49.34,-8.775,-3.377,5.437
9.603,52.011,31.384,-7.173,-2.902,4.544
10.463,48.347,12.737,-4.764,-1.682,3.577
10.44,39.71,-2.608,-1.993,-0.728,2.948
11.42,27.822,-10.296,0.798,0.458,1.715
11.594,16.782,-9.193,3.209,0.763,0.646
13.875,7.463,-2.979,3.938,0.835,0.245
14.327,2.098,2.574,3.749,-0.363,0.196
13.464,-0.36,5.797,3.216,-0.893,0.691
11.202,-1.364,6.082,2.665,-1.696,1.314
6.7,-3.387,4.845,2.508,-1.929,1.398
4.818,-5.262,3.483,2.429,-1.894,0.925
3.985,-7.102,2.451,2.415,-1.96,0.306
3.502,-8.319,1.997,2.375,-1.866,-0.452
3.16,-7.996,1.71,2.281,-1.619,-1.375
2.448,-4.318,1.305,2.216,-1.323,-2.71
1.626,2.058,1.685,2.623,-0.403,-4.3
2.278,10.91,4.56,3.586,1.42,-5.829
7.625,21.125,14.738,4.88,3.353,-6.324
14.197,22.798,23.974,5.083,2.185,-5.967
23.838,19.097,29.671,4.3,1.938,-4.252
29.265,15.825,38.171,2.774,-0.338,-1.025
28.78,13.638,49.14,0.059,-2.54,2.424
21.277,14.339,54.324,-3.434,-5.344,4.72
14.971,27.712,58.725,-5.782,-5.209,6.27
8.335,42.552,58.491,-7.251,-5.068,7.275
9.349,52.776,47.15,-7.935,-3.505,7.078
10.637,55.387,27.744,-6.536,-2.203,6.543
14.459,48.884,8.051,-3.867,-0.932,5.677
15.762,33.836,-6.568,-0.83,0.325,4.456
17.104,19.208,-9.587,1.617,-0.131,2.702
12.838,6.362,-4.821,3.307,-0.385,1.45
12.836,-1.972,1.767,3.292,-1.119,0.531
11.605,-5.692,5.947,2.53,-1.892,0.223
10.222,-5.883,6.686,1.552,-2.447,0.472
6.779,-5.259,3.789,1.256,-1.997,0.783
5.299,-5.112,1.305,1.306,-2.186,0.52
4.088,-5.451,0.338,1.612,-1.981,-0.087
4.519,-5.558,0.658,1.925,-1.567,-0.688
4.143,-4.36,0.861,2.107,-1.405,-1.728
3.093,-0.19,1.549,2.488,-1.094,-3.2
2.774,6.828,3.014,3.429,0.177,-4.797
3.765,16.63,7.284,4.778,1.661,-6.189
10.32,25.91,17.596,6.05,3.29,-6.801
16.654,26.336,25.752,5.264,1.841,-6.358
29.365,21.646,28.303,3.931,1.328,-3.92
34.724,18.14,33.554,1.956,-0.548,-0.537
35.749,14.395,44.101,-1.125,-2.952,2.882
28.341,14.882,48.982,-4.618,-6.181,5.004
23.215,27.685,52.907,-6.072,-6.034,7.164
12.804,41.249,55.222,-7.273,-5.771,7.904
9.937,49.825,45.904,-7.792,-4.793,7.711
7.253,51.788,25.566,-6.02,-3.424,6.801
8.202,45.604,7.417,-2.979,-1.169,5.669
10.67,31.658,-3.895,0.208,0.578,3.462
13.604,18.735,-6.398,2.778,0.505,1.572
14.021,6.952,-2.255,4.435,0.18,0.448
15.487,-0.534,4.079,4.406,-0.678,0.055
15.511,-4.182,7.7,3.451,-1.716,0.443
12.349,-4.801,7.368,2.331,-2.277,1.172
8.031,-5.01,4.991,1.85,-2.589,1.458
4.865,-5.286,3.049,1.733,-2.576,1.025
3.895,-4.699,2.461,1.987,-2.277,0.249
4.318,-5.607,3.03,2.316,-2.089,-0.6
4.101,-5.575,3.403,2.479,-1.951,-1.526
4.404,-4.228,3.575,2.64,-1.612,-2.679
4.644,-1.322,4.292,2.762,-1.172,-4.025
4.045,4.346,4.937,2.965,-0.008,-5.305
4.275,14.866,6.969,3.926,2.079,-6.117
13.298,21.087,14.836,5.189,2.754,-5.99
22.699,20.377,21.607,4.595,2.415,-4.439
29.394,20.531,29.369,3.517,1.183,-1.508
32.537,20.42,42.411,1.337,-0.7,1.923
31.196,21.395,53.234,-2.04,-3.143,4.954
23.716,28.692,57.701,-5.532,-3.878,7.17
17.423,41.991,60.772,-7.188,-3.547,7.806
17.673,52.6,57.463,-8.407,-1.701,7.516
20.832,58.332,40.762,-8.261,-0.722,6.942
23.963,55.885,21.127,-6.397,0.527,6.218
24.541,47.065,4.633,-3.819,0.734,4.735
23.444,35.119,-5.488,-0.899,0.658,3.251
20.872,22.328,-6.761,1.745,-0.451,1.802
17.712,10.249,-1.241,3.475,-0.879,0.911
14.92,2.953,5.091,3.744,-2.102,0.153
12.974,-1.435,8.916,3.474,-2.414,0.162
10.573,-3.532,9.354,2.945,-2.634,0.549
7.13,-4.53,6.335,2.63,-2.487,0.817
4.722,-5.221,4.166,2.652,-2.54,0.439
4.388,-6.836,3.379,2.798,-2.21,-0.021
5.042,-8.026,3.37,2.755,-2.03,-0.532
5.571,-8.517,3.287,2.489,-1.922,-0.923
5.22,-8.002,3.146,2.218,-1.447,-1.366
5.132,-5.964,2.699,1.942,-0.894,-2.101
4.286,-1.585,2.149,1.982,-0.301,-3.267
3.56,5.634,2.815,2.687,0.901,-4.376
5.431,13.563,6.018,3.958,2.613,-5.321
10.512,19.12,12.412,5.274,3.602,-5.469
15.894,19.68,18.557,5.527,3.226,-4.574
22.437,16.73,23.297,4.763,2.828,-2.642
27.708,12.964,28.281,2.873,0.877,-0.044
28.464,12.333,35.571,0.004,-1.974,2.661
23.742,14.33,41.197,-3.347,-4.335,4.677
17.726,21.887,48.466,-5.651,-5.57,5.841
11.909,33.128,55.522,-7.208,-6.56,6.965
8.886,41.369,56.027,-8.288,-5.407,7.52
11.148,44.804,47.022,-8.644,-3.431,7.511
15.885,46.021,31.738,-7.635,-1.763,7.203
20.51,42.956,14.049,-5.721,0.123,6.657
22.673,34.876,-0.527,-3.349,0.994,4.992
23.091,25.862,-7.653,-0.709,0.602,2.925
21.855,16.984,-7.238,1.714,-0.533,1.261
19.397,8.92,-2.138,3.072,-1.403,0.398
16.592,3.931,3.468,3.481,-2.373,0.004
15.413,1.068,8.019,3.522,-2.645,0.312
12.421,-1.255,10.329,3.19,-3.02,0.907
8.278,-2.885,8.744,2.673,-2.761,1.354
4.291,-4.042,5.983,2.351,-2.879,0.984
2.112,-5.304,3.457,2.399,-2.532,0.25
1.669,-6.102,2.461,2.555,-2.167,-0.745
2.276,-4.08,0.885,2.805,-1.753,-2.0
2.743,-0.144,0.711,3.521,-1.59,-3.597
4.143,6.159,2.735,4.51,-0.605,-5.226
7.148,14.24,8.888,5.505,0.914,-6.214
11.573,19.718,14.877,6.127,2.027,-6.424
15.016,20.908,19.444,5.97,2.184,-5.929
19.863,18.024,21.813,5.092,2.555,-4.593
26.073,13.206,23.45,3.582,1.509,-2.465
28.669,7.955,23.979,1.508,-0.661,-0.033
26.968,8.505,26.856,-0.883,-2.806,2.188
25.56,14.346,33.003,-3.059,-3.813,4.42
21.11,25.145,41.246,-4.974,-5.064,6.207
15.762,35.962,47.731,-6.523,-4.915,7.571
12.553,43.138,48.707,-7.815,-3.713,8.135
15.938,46.105,42.068,-8.613,-1.799,7.867
20.121,46.842,27.301,-8.137,-0.768,7.085
19.97,43.032,10.308,-6.157,0.196,5.944
19.366,35.159,-2.822,-3.663,1.077,4.209
20.856,27.178,-9.78,-1.063,0.909,2.168
19.787,19.333,-10.307,1.415,0.001,0.961
15.589,10.838,-4.462,2.985,-0.653,0.288
15.647,4.494,2.507,3.21,-0.94,0.093
15.264,1.134,7.111,2.895,-1.69,0.497
12.092,-0.825,7.897,2.463,-1.996,1.229
6.232,-2.481,5.588,2.216,-2.189,1.423
3.775,-3.633,3.01,2.262,-1.877,0.965
2.72,-4.468,1.403,2.459,-1.833,0.109
2.77,-4.098,0.712,2.853,-1.7,-1.02
2.817,-1.667,0.58,3.349,-1.699,-2.572
3.275,4.276,2.286,4.055,-1.19,-4.376
4.56,12.879,6.59,5.089,0.493,-5.802
7.561,20.302,13.697,6.178,2.325,-6.155
10.709,23.914,20.09,6.568,2.874,-5.871
14.283,23.121,24.623,6.202,3.443,-4.668
21.299,16.422,27.09,4.975,3.514,-2.433
26.07,8.494,28.951,2.806,1.822,0.308
26.627,5.533,32.225,-0.38,-0.141,2.573
22.591,6.868,37.894,-3.343,-1.143,4.048
