ax,ay,az,gx,gy,gz
11.242,-2.584,0.627,-0.389,-0.402,0.047
10.753,-2.435,0.522,-0.302,-0.271,0.131
10.836,-2.285,0.366,-0.206,0.091,0.171
11.235,-2.193,0.269,-0.142,0.209,0.197
11.279,-2.151,0.044,-0.104,0.254,0.219
11.238,-2.177,-0.218,-0.107,0.266,0.238
11.132,-2.19,-0.541,-0.141,0.267,0.254
10.91,-2.32,-0.689,-0.182,0.228,0.244
10.795,-2.598,-0.731,-0.237,0.36,0.192
11.5,-2.97,-0.662,-0.265,0.562,0.214
12.014,-3.393,-0.294,-0.32,0.663,0.386
12.11,-3.739,0.087,-0.377,0.807,0.658
12.167,-4.039,0.628,-0.446,0.907,0.989
12.013,-4.143,1.193,-0.493,0.718,1.329
11.214,-3.995,1.61,-0.509,0.445,1.482
10.521,-3.454,1.744,-0.402,0.066,1.366
9.86,-3.142,1.717,-0.255,-0.289,0.921
10.281,-2.793,0.946,0.029,-0.737,0.195
10.576,-2.907,1.01,0.327,-1.283,-0.783
10.606,-4.32,1.981,0.474,-1.539,-2.1
12.438,-9.566,4.143,0.441,-1.224,-3.477
15.312,-17.796,10.525,-1.033,-1.522,-3.32
18.38,-17.604,21.464,-2.96,-2.726,-1.22
23.117,-15.392,27.405,-4.904,-1.925,1.151
27.906,-5.649,30.73,-6.568,-2.336,3.125
26.224,6.898,28.216,-7.097,-2.471,4.941
23.283,18.917,19.8,-5.415,-1.568,4.985
20.347,19.816,6.94,-3.188,0.698,3.045
17.52,17.42,-1.585,-0.825,0.732,1.269
14.036,8.137,-6.944,1.493,0.724,0.756
13.339,0.475,-7.085,2.883,-0.181,0.732
12.226,-3.723,-4.947,3.46,-1.437,1.081
9.226,-5.256,-1.972,3.662,-2.687,1.376
5.457,-5.21,0.509,3.445,-2.842,1.389
2.451,-5.158,1.338,2.942,-2.111,0.818
1.863,-6.438,1.235,2.224,-1.084,0.06
2.69,-7.542,-0.461,1.455,-0.461,-0.699
4.063,-8.497,-2.68,0.936,-0.028,-1.19
5.407,-9.996,-4.474,0.646,-0.318,-1.842
6.722,-13.11,-5.234,0.394,-0.86,-2.817
7.742,-19.259,-2.101,0.201,-1.368,-3.835
10.918,-23.136,9.807,-0.76,-1.763,-3.496
16.547,-17.697,22.939,-2.67,-0.935,-1.609
22.537,-12.665,34.044,-4.525,-0.98,0.704
24.527,-0.674,37.321,-6.276,-0.711,3.228
25.961,14.257,32.834,-6.89,-0.614,5.131
24.514,24.198,21.017,-5.703,0.122,5.389
19.647,22.465,8.167,-3.471,-1.023,3.695
14.069,20.724,-2.697,-1.034,-0.388,1.761
14.628,12.465,-5.651,1.587,-0.026,0.247
14.668,4.457,-4.118,3.161,0.052,-0.216
13.91,-1.125,-2.111,3.742,-0.763,-0.027
12.819,-4.106,-0.006,4.136,-1.32,0.568
10.4,-6.094,2.094,4.23,-2.656,0.905
5.969,-7.047,3.291,3.979,-3.235,0.931
2.92,-7.563,3.756,3.436,-3.419,0.401
1.311,-7.879,3.225,2.757,-3.097,-0.492
2.013,-8.044,1.901,2.069,-2.509,-1.3
3.947,-8.223,-0.061,1.57,-1.661,-1.945
7.33,-7.95,-0.698,1.349,-1.457,-2.819
9.938,-9.526,-0.518,1.19,-1.339,-3.77
12.524,-12.963,3.841,1.063,-1.628,-4.571
13.818,-17.882,11.047,-0.387,-1.119,-4.286
16.392,-17.159,20.915,-2.42,-1.142,-2.728
18.119,-13.474,28.699,-4.568,-1.692,0.021
20.782,-10.426,32.855,-6.291,-1.298,2.522
21.963,1.633,29.574,-7.437,-0.476,4.195
23.158,13.152,21.929,-6.434,-0.515,4.543
20.428,16.052,11.787,-4.446,-0.432,3.57
17.922,14.098,2.256,-2.119,0.956,1.55
16.563,12.014,-2.691,0.218,1.189,0.33
15.172,3.289,-3.726,2.03,0.55,0.271
12.693,-3.457,-2.387,3.02,-0.075,0.594
12.275,-6.616,-0.527,3.492,-0.746,1.103
10.382,-7.718,1.675,3.574,-2.274,1.595
6.257,-6.668,2.234,3.294,-3.2,1.5
4.346,-5.947,2.115,2.945,-3.108,0.775
4.354,-5.506,1.415,2.526,-3.0,-0.242
5.857,-5.04,-0.183,2.35,-2.578,-1.4
9.548,-4.465,-0.507,2.374,-2.732,-2.676
12.897,-4.304,-0.379,2.537,-2.593,-4.036
17.701,-5.753,3.614,2.861,-2.888,-5.049
21.048,-10.804,8.928,2.23,-2.616,-5.206
24.311,-14.559,17.18,0.184,-2.764,-3.418
26.476,-10.903,25.404,-2.249,-2.571,-0.614
29.007,-8.004,29.86,-4.512,-1.68,2.6
26.982,2.164,28.813,-6.326,-1.085,4.327
24.85,14.464,23.301,-6.749,-0.947,4.824
21.197,22.762,14.416,-5.501,-0.672,3.683
16.808,21.24,3.631,-3.742,0.621,1.882
14.632,19.415,-3.139,-1.996,0.67,0.128
14.837,11.019,-6.649,-0.526,0.793,0.068
14.43,3.312,-5.953,0.762,0.216,0.795
12.842,-1.596,-4.146,1.665,-0.469,1.507
10.573,-3.971,-1.714,2.45,-1.721,2.035
6.254,-4.731,0.144,3.021,-2.455,2.155
2.227,-4.96,0.461,3.3,-2.363,1.759
0.701,-5.06,-0.272,3.226,-1.636,0.809
2.146,-5.805,-2.084,3.017,-0.839,-0.414
6.108,-6.952,-3.113,2.765,-0.607,-1.623
9.626,-8.305,-2.585,2.327,-1.571,-2.801
13.228,-9.096,-1.275,1.855,-2.13,-4.008
16.909,-10.612,2.679,1.518,-3.085,-4.954
20.67,-16.161,9.595,0.5,-3.113,-4.6
22.071,-17.951,17.09,-1.791,-3.409,-2.118
26.787,-13.939,24.352,-3.86,-1.619,0.694
29.405,-11.584,28.921,-5.642,-0.875,3.394
29.686,-0.853,27.364,-6.828,0.279,5.076
28.024,11.884,21.97,-6.609,0.631,5.407
25.341,18.23,13.356,-4.7,1.777,3.764
20.637,16.249,3.928,-2.498,1.635,2.043
17.549,14.702,-2.549,-0.324,1.337,0.833
15.13,5.422,-4.338,1.372,0.803,0.798
12.967,-1.269,-3.621,2.416,-0.067,1.153
11.381,-5.084,-0.99,2.962,-1.296,1.555
8.228,-6.076,1.09,3.229,-2.414,1.745
5.275,-6.102,2.091,3.319,-2.536,1.553
3.633,-5.78,2.34,3.222,-2.356,1.019
3.242,-6.101,1.889,3.052,-2.002,-0.005
5.18,-6.099,1.327,2.906,-1.296,-1.139
8.953,-6.982,2.03,2.746,-1.401,-2.166
11.912,-8.714,3.272,2.463,-1.984,-3.131
15.635,-11.689,5.369,2.092,-2.641,-3.873
17.369,-17.978,8.933,0.89,-3.394,-3.807
20.588,-21.003,15.312,-1.224,-4.384,-2.293
23.653,-19.317,22.835,-3.508,-4.442,0.266
29.349,-15.489,26.306,-5.574,-3.498,2.979
32.803,-2.858,27.506,-6.748,-2.564,5.354
34.296,10.824,23.014,-5.845,-0.337,7.255
31.135,17.07,15.241,-3.438,1.556,7.571
27.081,16.684,6.063,-0.497,2.66,6.667
19.637,11.314,1.447,2.011,1.713,5.352
12.483,-0.371,-1.437,3.284,0.567,4.097
8.648,-8.668,0.41,3.062,-1.486,2.821
6.667,-12.518,2.629,2.091,-2.987,1.833
4.413,-12.99,3.717,0.764,-3.823,1.17
3.214,-9.555,3.688,-0.113,-3.671,0.777
2.438,-6.968,3.308,-0.314,-3.204,0.476
1.532,-5.708,2.646,-0.032,-2.633,-0.001
1.527,-5.065,2.379,0.488,-1.939,-0.603
2.379,-5.315,2.722,0.988,-1.541,-1.303
4.518,-5.498,2.789,1.473,-0.923,-2.089
9.021,-6.028,2.923,1.963,-1.126,-2.826
12.817,-7.425,2.945,2.101,-1.659,-3.469
16.632,-9.841,4.274,2.034,-2.403,-4.064
18.067,-13.41,8.195,1.408,-3.281,-4.244
20.333,-16.662,12.687,-0.246,-4.033,-3.274
20.446,-16.244,18.315,-2.447,-4.085,-0.992
22.603,-11.43,24.222,-4.601,-3.26,1.692
23.719,-7.126,26.548,-6.157,-2.457,4.423
25.583,3.244,24.265,-6.682,-0.576,6.269
27.099,12.192,18.673,-5.894,1.19,6.503
26.65,15.649,10.522,-4.307,1.974,5.314
23.599,13.904,2.394,-2.166,1.877,3.657
21.025,11.302,-2.055,-0.134,1.945,2.122
18.664,3.753,-3.452,1.305,0.336,1.472
13.248,-2.349,-1.513,2.267,-1.903,1.456
9.229,-6.29,1.09,2.818,-2.689,1.484
6.343,-8.598,3.203,2.814,-2.848,1.482
3.665,-8.378,3.474,2.302,-3.209,1.105
2.117,-7.511,2.444,1.876,-2.741,0.225
3.277,-7.41,1.223,1.7,-2.022,-0.602
5.389,-6.961,0.972,1.647,-1.758,-1.349
8.677,-6.477,1.645,1.846,-2.342,-2.06
10.869,-7.466,2.23,2.056,-2.767,-2.897
15.08,-11.251,3.298,2.155,-3.142,-3.818
16.233,-18.582,8.135,1.117,-3.598,-4.272
21.24,-20.77,15.959,-1.083,-4.458,-3.019
23.25,-19.26,23.047,-3.419,-4.026,-0.648
27.239,-14.444,27.79,-5.677,-3.343,2.101
26.826,-5.53,32.216,-6.945,-2.552,4.999
29.36,9.146,26.448,-6.672,-0.464,6.475
25.895,15.003,17.262,-4.906,0.902,5.865
24.129,15.435,7.025,-2.888,1.515,3.912
21.695,12.48,0.545,-0.656,1.782,2.022
20.297,7.645,-5.144,0.763,1.241,0.413
16.916,0.878,-3.726,1.805,-0.532,-0.065
14.849,-2.368,-1.715,2.562,-1.725,0.078
11.157,-3.826,1.435,3.225,-3.277,0.359
5.982,-4.919,3.986,3.851,-3.765,0.214
3.225,-4.956,4.808,4.25,-2.909,-0.189
3.147,-5.582,3.278,4.255,-2.133,-0.714
4.855,-6.621,0.489,3.937,-1.505,-1.544
7.967,-7.203,0.305,3.552,-0.008,-2.134
12.407,-7.249,0.445,2.883,-0.835,-2.634
14.606,-8.977,1.786,2.18,-2.006,-3.407
15.814,-11.51,6.749,1.447,-2.165,-4.132
15.855,-15.853,13.454,-0.122,-2.087,-3.71
16.503,-16.453,19.595,-2.418,-2.804,-2.178
17.68,-13.127,24.361,-4.607,-2.004,0.301
20.523,-8.86,27.422,-5.822,-1.339,2.938
20.379,1.079,25.216,-6.338,-0.499,4.57
22.458,11.297,18.976,-5.673,0.684,4.58
23.004,14.31,10.126,-4.175,1.008,3.362
22.217,12.565,1.887,-2.305,1.301,1.606
20.003,9.941,-3.231,-0.995,1.14,0.359
18.411,3.308,-4.624,0.01,-0.083,0.218
13.969,-1.805,-2.692,0.967,-1.468,0.802
9.601,-3.752,-0.146,1.792,-2.206,1.318
5.04,-4.326,1.65,2.219,-2.383,1.358
1.871,-4.178,1.305,2.511,-1.737,0.924
1.626,-4.261,0.645,2.816,-0.791,-0.057
4.555,-4.306,-0.31,3.226,0.359,-1.251
9.71,-4.988,1.09,3.506,0.371,-2.361
13.487,-6.304,2.257,3.433,-0.067,-3.231
19.141,-8.201,5.301,3.223,-0.631,-3.779
20.537,-13.648,11.327,2.1,-2.234,-3.5
20.143,-17.222,18.527,-0.486,-3.44,-2.059
19.0,-15.11,24.462,-3.089,-3.318,0.468
21.17,-12.403,28.778,-5.104,-2.938,3.111
19.729,-6.69,29.289,-6.274,-2.922,4.726
19.657,5.728,22.658,-6.384,-1.294,5.087
19.5,13.875,14.48,-4.897,-0.365,4.272
17.792,14.712,4.667,-3.094,0.483,2.314
15.86,13.926,-2.68,-1.339,1.46,0.303
16.395,10.037,-6.721,-0.235,1.803,-0.532
16.696,2.656,-5.966,0.738,0.936,-0.213
15.134,-2.112,-4.577,1.429,0.251,0.481
13.609,-4.354,-2.416,2.032,-0.667,1.327
9.868,-5.051,-0.216,2.544,-2.228,1.842
4.688,-4.867,0.607,2.913,-2.51,1.756
2.28,-4.61,0.882,3.071,-2.192,1.133
1.386,-5.168,0.718,3.055,-1.767,0.066
2.81,-5.528,-0.123,2.969,-0.808,-1.189
6.771,-6.038,0.019,3.107,-0.011,-2.126
11.028,-8.052,0.903,3.102,-0.45,-3.081
15.662,-12.07,2.327,2.951,-0.9,-3.862
18.538,-17.906,8.098,2.079,-2.443,-3.87
21.734,-18.785,16.292,0.313,-3.979,-2.265
22.881,-15.504,21.318,-1.767,-4.667,0.168
24.087,-11.135,24.163,-3.431,-3.89,2.959
22.674,-0.307,23.683,-4.638,-3.535,4.905
20.978,11.586,15.901,-4.52,-2.048,5.693
17.139,16.892,5.135,-3.316,-0.403,4.515
15.085,16.321,-2.723,-1.799,1.111,2.21
15.423,13.914,-7.145,-0.33,1.507,0.05
15.533,6.613,-7.683,1.054,1.3,-0.863
15.288,0.576,-5.211,1.922,0.986,-0.805
14.751,-4.132,-2.305,2.563,0.179,-0.128
12.346,-6.362,-0.041,2.955,-1.474,0.816
6.416,-6.89,0.632,3.057,-2.811,1.327
2.824,-6.467,-0.077,2.921,-2.753,1.147
1.607,-5.783,-0.397,2.753,-2.501,0.414
2.009,-4.869,-0.639,2.735,-1.743,-0.783
5.612,-3.15,-0.473,3.139,-0.688,-1.658
10.877,-2.003,1.016,3.711,-1.08,-2.253
14.656,-2.303,3.288,4.282,-2.073,-3.01
19.702,-4.39,6.348,4.694,-2.548,-3.609
22.294,-10.848,10.944,4.146,-3.775,-3.304
22.533,-16.651,15.761,2.062,-4.473,-2.121
21.977,-17.266,20.217,-0.46,-3.722,-0.156
23.952,-14.478,24.133,-2.987,-2.93,2.522
23.624,-8.626,25.446,-4.962,-1.948,4.813
24.102,5.249,21.842,-5.871,-0.081,5.827
24.7,16.434,13.068,-5.263,0.393,5.428
22.263,19.874,3.5,-3.744,0.501,3.875
19.355,18.054,-3.893,-1.335,1.636,1.591
18.705,11.911,-6.601,0.706,1.203,0.402
15.078,3.501,-6.268,2.336,-0.952,0.123
10.702,-3.752,-1.75,3.52,-1.369,0.173
9.056,-7.701,2.316,3.913,-1.587,0.553
5.809,-8.839,3.532,3.453,-2.758,1.263
0.775,-6.763,1.816,3.032,-2.829,1.091
0.737,-7.041,0.618,2.734,-1.426,0.595
2.015,-8.161,-1.123,2.322,-0.978,-0.117
4.414,-8.2,-2.432,2.18,-0.578,-0.762
7.156,-8.206,-2.333,2.124,-0.817,-1.457
9.438,-9.455,-1.716,2.125,-1.48,-2.477
12.261,-12.456,2.059,2.065,-1.87,-3.726
12.241,-19.104,9.747,1.1,-2.638,-4.06
13.53,-20.998,20.126,-1.05,-2.291,-2.813
16.534,-17.455,30.281,-3.22,-2.021,-0.801
21.367,-13.357,37.423,-5.468,-1.125,1.5
23.687,0.076,37.299,-7.431,-0.94,3.508
25.508,15.561,28.992,-7.207,-0.136,4.87
23.821,21.831,17.397,-4.945,-0.118,4.324
20.98,19.776,5.897,-2.294,0.802,2.87
17.061,15.481,-1.571,0.501,0.329,1.935
12.258,5.304,-3.997,2.941,-0.681,1.691
9.254,-3.312,-1.559,4.028,-1.592,1.263
7.813,-7.501,0.655,4.061,-2.616,1.001
5.02,-8.928,2.343,3.601,-3.862,0.902
2.062,-7.634,2.326,2.959,-3.656,0.391
1.789,-7.488,1.487,2.411,-2.526,-0.242
2.719,-6.845,0.415,2.083,-1.416,-0.953
5.114,-6.497,-0.009,2.117,-0.606,-1.709
9.23,-6.265,0.741,2.453,-0.885,-2.556
12.742,-6.519,1.052,2.695,-1.632,-3.591
17.829,-8.69,3.058,2.864,-2.136,-4.307
18.983,-13.889,7.313,2.387,-3.724,-4.458
23.397,-16.908,15.182,0.877,-4.077,-3.109
25.728,-14.52,22.832,-1.649,-3.554,-0.453
30.128,-8.947,30.634,-4.045,-2.186,2.507
29.702,-0.837,33.729,-6.338,-1.537,5.049
31.811,13.319,32.15,-7.271,0.307,6.385
27.257,22.118,23.377,-6.432,1.041,6.177
23.979,22.569,13.759,-4.253,2.136,4.631
19.33,18.578,4.384,-1.852,2.046,2.986
18.156,11.995,-0.351,0.904,2.087,1.807
16.111,2.24,-2.398,2.704,1.145,1.731
14.929,-4.482,-0.319,3.47,0.051,1.927
13.321,-7.11,1.96,3.585,-2.026,2.185
10.143,-8.407,3.941,3.299,-3.863,2.081
6.33,-7.48,3.779,2.548,-4.771,1.485
4.442,-6.37,3.188,1.967,-4.782,0.36
4.334,-5.199,1.608,1.667,-4.462,-0.967
5.21,-5.129,-0.06,1.564,-3.598,-2.417
7.575,-4.387,-2.182,1.764,-2.507,-3.677
10.814,-4.219,-1.807,2.246,-2.149,-4.838
13.323,-6.388,2.426,2.756,-1.655,-5.698
17.515,-10.95,11.236,1.74,-0.467,-5.419
21.104,-10.904,23.345,-0.451,-0.823,-3.816
23.428,-3.301,35.325,-2.765,-0.966,-0.806
28.159,3.976,45.055,-5.253,-0.779,2.35
28.012,14.609,44.949,-7.73,0.022,4.762
26.04,26.658,36.932,-8.223,-0.634,5.418
22.881,30.846,23.836,-6.629,0.498,4.949
21.721,25.252,11.49,-4.422,1.431,3.293
16.988,18.074,0.363,-2.103,1.648,1.618
17.845,9.043,-3.401,0.296,0.495,0.85
16.569,0.933,-3.002,2.067,-0.532,0.964
15.205,-3.218,-0.327,2.96,-1.958,1.222
11.909,-5.594,2.891,3.192,-3.689,1.223
7.994,-6.211,4.607,3.073,-4.482,1.003
4.559,-6.168,4.78,2.84,-4.589,0.336
3.151,-6.204,3.644,2.63,-4.366,-0.565
2.944,-6.219,1.642,2.446,-3.597,-1.633
4.6,-6.198,-0.294,2.378,-2.806,-2.668
6.706,-6.035,-1.355,2.695,-2.235,-3.759
9.603,-7.098,-0.646,3.169,-2.135,-4.871
11.297,-10.587,3.594,3.204,-1.95,-5.721
14.215,-12.497,7.604,2.53,-1.472,-5.913
18.847,-9.171,20.445,0.645,-1.309,-4.935
22.78,-3.788,32.367,-1.872,-2.007,-2.108
27.491,8.383,40.472,-4.513,-1.939,1.13
27.281,23.449,40.583,-6.724,-1.364,3.842
25.702,34.142,37.368,-7.95,-1.469,5.48
20.248,35.828,23.343,-6.853,-1.372,5.848
16.014,33.569,10.099,-4.789,0.141,4.227
11.946,23.987,0.268,-2.472,1.193,2.372
13.172,11.82,-2.806,-0.135,0.872,1.171
12.718,2.359,-2.022,1.877,0.763,0.773
13.471,-3.318,0.675,2.747,0.516,0.885
12.611,-6.618,3.498,3.214,-1.248,1.312
8.631,-8.347,5.625,3.359,-3.209,1.448
5.361,-7.966,5.419,3.363,-3.851,1.018
4.068,-8.648,4.743,3.17,-4.138,0.189
3.732,-8.358,3.423,2.915,-3.889,-0.862
5.158,-7.748,1.464,2.706,-3.278,-1.845
7.192,-7.339,-0.372,2.646,-2.636,-2.728
8.957,-8.092,-0.329,2.714,-2.134,-3.605
10.503,-11.22,2.607,2.585,-2.201,-4.291
13.338,-14.702,8.422,1.4,-2.011,-4.203
17.565,-14.415,21.207,-0.922,-1.435,-2.798
22.725,-7.341,33.802,-3.324,-1.012,-0.196
29.624,2.581,41.524,-5.733,-0.064,2.706
31.38,13.401,40.233,-7.685,1.223,4.908
30.931,22.804,34.265,-7.306,1.71,5.833
27.969,25.637,21.327,-5.271,2.253,5.193
24.267,19.783,9.186,-2.957,2.493,3.479
17.86,10.62,1.255,-0.63,1.423,1.589
15.625,2.628,1.21,1.666,0.155,0.517
13.341,-4.016,2.866,2.561,-0.891,0.204
10.873,-8.052,4.928,2.803,-2.228,0.403
7.756,-9.646,5.691,2.753,-3.164,0.651
5.462,-9.558,5.749,2.708,-3.724,0.738
4.112,-8.556,4.186,2.577,-4.016,0.42
3.483,-7.905,3.175,2.614,-3.843,-0.2
4.541,-6.966,2.0,2.729,-3.467,-1.129
6.277,-6.604,1.248,2.894,-3.214,-2.153
8.04,-7.027,1.404,2.992,-2.593,-3.05
10.634,-8.453,3.258,2.957,-2.163,-3.763
12.77,-12.21,6.756,2.093,-2.339,-4.053
15.349,-15.209,12.245,0.102,-1.909,-3.343
19.569,-13.856,20.591,-2.328,-1.665,-1.542
23.432,-8.905,27.643,-4.707,-1.868,1.158
25.802,-4.227,31.268,-6.978,-1.121,3.926
26.486,6.988,30.259,-8.132,-0.287,5.359
25.464,15.198,24.57,-7.332,-0.348,5.65
20.963,17.248,14.855,-5.473,0.309,4.785
17.878,15.027,4.864,-3.286,1.411,2.955
16.047,12.542,-1.629,-0.835,1.117,1.151
14.836,4.56,-4.171,1.393,0.279,0.518
13.113,-1.44,-3.205,2.747,-0.313,0.28
12.451,-5.489,-0.604,3.384,-1.625,0.358
9.518,-8.015,2.619,3.66,-3.191,0.454
5.85,-9.134,4.094,3.526,-4.237,0.263
3.34,-9.196,4.223,3.105,-4.183,-0.117
1.817,-9.36,3.404,2.569,-3.789,-0.634
1.19,-8.705,1.652,2.086,-2.646,-1.324
2.615,-8.132,0.174,1.796,-1.471,-2.093
5.772,-7.622,-0.997,1.779,-0.764,-2.911
9.926,-7.794,-2.139,1.836,-1.082,-4.021
14.091,-10.327,0.043,1.731,-1.854,-4.925
20.068,-13.16,6.919,0.794,-2.054,-4.622
23.446,-14.154,15.037,-1.252,-2.631,-2.208
27.373,-9.941,22.828,-3.552,-2.072,0.617
28.897,-5.415,28.649,-5.723,-0.874,3.802
28.104,6.364,27.742,-6.701,0.64,5.733
25.634,14.242,20.444,-6.06,1.315,6.172
23.642,16.69,11.985,-4.035,2.2,4.551
20.13,12.888,3.724,-1.764,2.046,2.8
17.28,8.551,-0.922,0.65,1.3,1.228
15.14,-0.434,-1.517,2.097,0.321,0.772
13.038,-5.72,0.321,2.694,-0.903,0.875
10.9,-7.555,2.287,2.839,-2.322,1.12
7.602,-7.93,3.589,2.839,-3.461,1.078
5.132,-7.319,3.37,2.682,-3.701,0.553
5.229,-7.46,2.955,2.582,-3.528,0.116
4.886,-7.598,2.174,2.489,-3.573,-0.556
6.05,-7.788,0.828,2.364,-3.583,-1.381
7.649,-7.926,-0.588,2.307,-3.164,-2.243
10.006,-8.998,-0.609,2.341,-2.982,-3.099
11.524,-10.896,-0.23,2.403,-3.175,-4.085
15.731,-15.516,10.79,1.576,-3.106,-4.083
20.04,-16.777,22.857,-0.596,-1.214,-2.26
27.128,-9.063,37.291,-2.81,-1.493,0.395
29.773,-0.699,42.76,-5.101,-0.909,3.348
32.319,10.149,43.664,-7.012,0.391,5.42
29.847,22.181,31.496,-6.848,0.846,6.197
25.718,27.297,17.419,-4.77,0.394,5.011
21.067,21.298,2.499,-2.527,1.917,3.186
19.743,13.859,-3.375,-0.193,1.604,1.517
16.486,5.78,-4.544,1.797,0.397,0.915
14.552,-0.783,-2.533,2.749,-0.195,0.753
13.147,-3.951,1.079,3.227,-1.519,0.914
8.72,-5.242,3.378,3.481,-3.02,1.034
4.582,-4.986,4.004,3.594,-3.176,0.795
3.204,-5.822,3.506,3.558,-3.116,0.178
3.827,-6.107,2.123,3.48,-2.568,-0.532
6.241,-6.394,1.699,3.515,-2.19,-1.429
10.055,-6.479,1.045,3.646,-2.253,-2.44
13.731,-7.114,2.684,3.751,-2.682,-3.465
16.445,-7.594,5.578,3.935,-2.712,-4.364
20.403,-8.912,14.273,3.41,-2.458,-4.501
20.971,-10.797,23.483,1.27,-3.078,-3.125
23.339,-7.553,35.581,-1.358,-2.961,-0.454
26.411,2.93,42.45,-3.91,-2.795,2.479
26.599,14.361,42.166,-6.481,-1.799,4.967
23.185,23.95,33.106,-7.595,-2.065,5.962
20.393,30.585,21.443,-6.384,-1.165,5.279
16.428,30.548,7.617,-4.385,0.455,3.364
14.049,21.96,-1.917,-2.26,1.66,1.42
13.596,11.897,-4.575,-0.149,0.912,0.211
13.917,3.327,-3.275,1.244,1.138,0.255
14.983,-1.145,-1.152,1.907,0.984,1.057
14.085,-3.89,1.012,2.4,-0.927,2.101
9.405,-4.562,3.35,2.793,-3.285,2.662
4.437,-5.171,3.343,2.945,-4.148,2.441
1.428,-5.424,2.806,2.912,-4.374,1.443
0.491,-5.704,1.499,2.619,-3.837,0.134
1.236,-6.62,0.123,2.281,-2.779,-1.337
3.721,-7.219,-1.999,2.009,-1.492,-2.591
6.939,-7.418,-1.511,1.887,-1.265,-3.825
9.579,-6.842,-0.469,1.831,-1.223,-5.056
13.359,-9.306,4.168,1.803,-1.741,-5.747
16.941,-9.69,11.083,0.615,-1.911,-5.248
20.677,-7.818,19.26,-1.39,-2.215,-2.968
26.707,0.67,28.157,-3.531,-0.877,0.161
30.173,11.323,33.676,-5.628,-1.093,2.898
25.75,24.212,29.704,-7.631,-0.981,4.723
19.821,31.615,21.324,-7.336,-0.888,4.784
15.755,34.01,11.452,-5.58,0.187,2.905
11.823,28.788,1.245,-3.179,0.252,0.706
11.2,18.617,-4.366,-0.695,1.554,-0.418
15.578,8.007,-2.754,1.547,1.696,-0.448
18.409,1.1,0.264,2.392,1.41,0.888
16.669,-2.609,3.008,2.577,-0.15,2.599
11.526,-4.421,4.718,2.521,-2.101,3.787
5.222,-4.509,4.004,2.219,-3.63,4.098
-0.31,-3.832,1.914,2.036,-4.04,3.3
-1.825,-3.535,0.268,2.134,-3.668,1.591
-0.952,-4.199,-0.624,2.083,-2.349,-0.243
2.724,-5.33,-2.071,1.926,-0.948,-1.745
6.139,-6.726,-2.27,2.081,-1.323,-2.962
8.756,-8.579,-1.17,2.174,-1.765,-4.318
10.769,-9.609,1.311,2.15,-2.247,-5.52
15.548,-10.482,6.251,1.745,-3.307,-5.853
21.073,-9.181,14.902,0.484,-3.737,-4.292
23.797,-4.902,23.191,-1.854,-2.855,-1.587
27.76,5.324,30.936,-4.006,-1.663,1.602
27.136,18.244,31.782,-6.186,-1.185,4.151
22.128,26.844,25.209,-7.008,-0.053,5.446
15.115,29.747,14.861,-6.119,0.757,4.313
14.313,30.014,5.259,-3.885,1.535,2.176
13.111,23.215,-3.198,-1.664,1.377,0.298
14.534,12.478,-5.101,0.627,1.556,-0.285
17.203,5.538,-2.52,1.951,1.29,0.107
18.681,1.917,0.284,2.312,0.54,1.478
15.816,-1.334,1.952,2.25,-0.75,2.974
11.603,-2.751,2.894,2.261,-1.977,4.018
7.259,-3.719,3.077,2.116,-3.317,4.086
3.596,-4.036,2.235,1.916,-3.802,3.376
1.154,-4.499,1.853,1.656,-4.149,2.128
-0.195,-4.79,1.175,1.409,-3.794,0.479
0.437,-4.68,-0.152,1.217,-2.706,-1.123
2.615,-4.535,-1.273,1.327,-1.922,-2.553
4.527,-5.242,-1.524,1.651,-1.504,-4.053
7.637,-5.994,-0.352,2.208,-1.157,-5.526
13.804,-7.596,4.792,2.501,-1.441,-6.047
19.435,-8.341,12.351,1.315,-2.289,-5.087
23.197,-7.52,20.794,-0.94,-1.586,-2.568
28.711,0.056,31.108,-3.293,-1.35,0.581
30.261,10.965,36.067,-5.766,-1.684,3.32
23.578,21.762,31.028,-7.635,-1.381,5.055
17.707,27.516,22.37,-7.045,-0.049,5.007
15.395,30.051,12.58,-5.047,-0.043,3.249
12.113,25.207,1.526,-2.768,0.342,1.364
11.658,15.531,-4.48,-0.334,1.345,0.492
15.512,6.139,-3.905,1.746,1.674,0.527
16.957,0.324,-1.613,2.66,0.861,1.337
15.054,-3.469,1.22,2.986,-0.478,2.554
11.222,-5.255,2.927,2.954,-2.447,3.247
5.972,-5.835,3.525,2.642,-4.117,3.063
2.084,-6.276,3.546,2.232,-4.415,2.223
0.354,-6.23,2.915,1.788,-4.414,0.966
-0.327,-6.262,0.949,1.395,-3.837,-0.416
0.096,-6.572,-0.544,1.192,-2.417,-1.571
2.67,-6.385,-2.194,1.236,-1.184,-2.533
5.102,-6.076,-2.889,1.494,-1.123,-3.697
7.58,-6.961,-1.5,1.888,-1.168,-4.928
11.438,-9.085,3.303,1.981,-0.944,-5.701
17.448,-12.56,14.223,0.511,-1.425,-4.978
21.441,-11.196,25.823,-1.655,-1.781,-2.412
26.877,-0.694,35.228,-3.931,-1.539,0.51
27.323,12.138,35.914,-6.241,-0.887,2.515
24.112,21.653,31.35,-6.992,-0.682,3.98
20.18,28.45,19.143,-5.617,0.375,3.756
19.246,28.666,7.277,-3.505,1.394,2.026
16.247,19.258,-2.187,-1.398,1.244,0.563
15.963,7.556,-3.019,0.789,0.731,0.625
16.967,0.566,-1.392,1.643,0.341,1.164
15.567,-2.71,1.636,1.885,-0.861,2.128
11.327,-4.17,3.703,1.994,-2.427,2.784
6.573,-5.017,4.328,1.997,-3.198,2.728
3.415,-5.157,3.01,1.816,-3.44,1.946
2.023,-5.497,1.268,1.657,-3.452,0.679
1.907,-5.903,-0.636,1.55,-2.95,-0.798
3.338,-6.212,-1.908,1.495,-2.462,-2.203
5.375,-6.274,-2.914,1.585,-2.055,-3.388
7.895,-6.741,-2.18,1.866,-1.796,-4.46
11.032,-9.381,2.828,2.09,-1.555,-5.139
16.77,-12.002,14.033,0.487,-1.374,-4.279
21.218,-10.542,24.626,-1.678,-1.131,-1.765
27.458,1.464,33.587,-3.878,-0.932,0.571
28.166,13.564,33.764,-6.086,-0.498,2.694
25.273,23.991,27.924,-6.701,-0.186,4.017
20.719,30.245,15.541,-5.026,0.317,3.421
19.387,31.115,4.493,-2.63,0.943,1.448
15.667,19.48,-3.378,-0.24,1.077,0.236
15.432,7.825,-3.116,2.035,0.812,-0.001
16.237,0.075,-0.826,2.681,0.293,0.708
14.474,-3.136,1.856,2.768,-0.8,1.886
9.462,-5.024,2.78,2.65,-1.784,2.683
5.294,-5.452,2.424,2.505,-1.914,2.802
2.834,-5.407,0.835,2.232,-2.028,2.028
2.685,-5.248,-0.858,2.159,-1.701,0.706
4.714,-5.516,-2.208,2.149,-1.263,-0.627
7.115,-5.999,-1.872,2.134,-1.435,-1.835
8.725,-6.394,-1.63,1.981,-1.83,-2.968
10.579,-9.092,0.69,1.898,-1.911,-3.909
13.157,-15.686,9.371,0.935,-2.545,-4.107
15.613,-16.844,19.234,-1.298,-2.59,-2.551
21.638,-11.602,27.965,-3.56,-1.706,-0.565
21.024,-0.746,29.929,-5.384,-1.32,1.24
20.283,9.167,27.438,-6.176,-0.588,2.787
19.451,19.748,17.296,-5.613,0.285,3.398
18.132,23.502,6.717,-3.688,0.817,2.35
14.02,19.883,-2.815,-1.526,0.791,1.385
16.628,10.376,-3.816,0.393,0.711,1.258
16.741,3.703,-1.912,1.444,-0.488,1.721
13.711,0.117,1.42,1.944,-1.404,2.469
9.965,-1.96,3.341,2.275,-2.004,2.879
5.876,-3.33,3.858,2.38,-2.301,2.683
2.759,-4.785,2.967,2.478,-2.128,1.772
2.567,-5.44,1.46,2.428,-1.736,0.49
3.956,-5.897,-0.113,2.488,-1.336,-0.724
6.392,-6.26,-0.439,2.584,-1.543,-1.743
8.229,-6.685,-0.48,2.573,-2.174,-2.61
9.778,-6.524,-0.592,2.42,-2.461,-3.332
11.948,-8.344,1.441,2.219,-2.524,-3.89
14.402,-12.001,6.284,1.421,-2.666,-3.779
18.135,-13.981,12.407,-0.452,-2.721,-2.312
22.054,-11.521,17.797,-2.628,-1.582,0.208
28.935,-0.113,22.561,-4.759,-1.387,2.023
25.654,10.033,20.351,-5.931,-1.162,3.792
22.601,19.102,14.112,-5.831,-0.415,4.385
19.025,23.378,6.019,-4.405,0.729,3.447
17.658,21.99,-0.013,-2.477,0.867,1.812
12.118,11.251,-4.69,-0.448,1.057,1.436
13.732,3.352,-3.918,0.796,1.086,1.485
13.498,-1.855,-1.697,1.357,0.28,2.072
11.267,-3.981,0.293,1.752,-0.71,2.704
6.88,-4.841,0.884,1.981,-1.405,2.808
4.126,-5.609,0.684,2.059,-1.563,2.243
2.81,-6.589,0.467,1.924,-1.585,1.143
3.231,-7.337,-0.167,1.614,-1.222,-0.002
4.423,-7.871,-0.803,1.245,-1.026,-0.944
6.269,-7.545,-1.669,1.006,-1.281,-1.716
7.044,-7.177,-1.745,0.941,-1.822,-2.599
8.164,-8.051,-1.326,0.894,-1.88,-3.546
11.295,-12.114,3.215,0.77,-2.288,-3.939
15.746,-13.971,11.938,-0.658,-2.529,-2.845
21.417,-11.747,19.444,-2.656,-1.218,-0.555
28.336,-4.928,25.097,-4.698,-0.417,1.441
29.092,6.166,25.669,-6.24,-0.772,3.368
25.379,16.738,20.101,-6.586,0.004,4.536
20.958,22.529,10.053,-5.21,0.82,3.748
16.141,22.106,1.776,-3.079,0.493,1.67
12.131,16.162,-4.341,-0.846,0.753,0.441
13.144,6.726,-4.58,1.191,1.396,0.015
14.832,0.473,-2.053,2.183,0.777,0.327
14.272,-3.218,0.914,2.75,-0.369,1.313
10.838,-4.75,2.681,3.02,-1.865,2.153
6.214,-5.529,2.992,3.142,-3.036,2.406
2.833,-6.314,2.371,2.855,-3.942,1.704
0.742,-6.386,0.708,2.325,-3.82,0.324
1.055,-6.49,-0.822,1.794,-2.772,-1.221
3.945,-7.006,-1.846,1.316,-2.012,-2.541
6.649,-6.988,-2.107,1.008,-1.589,-3.559
9.323,-7.069,-2.382,0.764,-1.134,-4.19
12.504,-8.835,-0.355,0.704,-0.954,-4.292
15.979,-12.075,3.415,0.12,-1.161,-3.472
17.469,-13.332,9.941,-1.141,-1.675,-1.37
19.365,-11.581,15.042,-2.923,-0.102,1.309
23.538,-3.741,18.66,-4.786,0.659,2.701
23.712,6.411,16.68,-5.724,0.71,3.702
21.471,14.575,11.039,-5.413,0.648,3.622
20.383,18.254,3.254,-3.966,1.961,2.377
20.3,16.151,-1.274,-2.016,1.382,0.946
15.6,9.178,-4.081,0.073,0.657,1.212
12.676,1.396,-3.095,1.402,-0.042,1.661
10.113,-3.004,-0.484,2.109,-0.819,2.041
7.177,-5.274,1.837,2.429,-1.718,2.127
3.136,-4.897,1.436,2.547,-2.335,1.718
2.134,-5.388,-0.346,2.757,-2.024,0.845
3.461,-5.542,-1.514,2.882,-1.542,-0.211
5.985,-6.214,-1.945,2.745,-1.33,-1.223
8.541,-6.458,-2.074,2.405,-1.757,-2.194
10.513,-6.167,-1.204,2.144,-1.999,-3.185
13.489,-6.348,2.036,1.886,-2.421,-4.14
16.07,-9.358,8.227,1.353,-2.211,-4.428
18.048,-14.273,17.045,-0.382,-1.874,-2.884
20.847,-12.385,25.133,-2.47,-1.229,-0.265
24.77,-8.59,30.35,-4.409,-0.52,1.635
22.798,2.603,28.901,-5.723,-0.446,2.772
20.865,13.139,22.348,-6.095,-0.584,3.453
18.253,22.561,11.003,-4.855,0.219,2.47
17.267,22.444,1.277,-2.896,1.193,0.825
15.466,18.582,-4.372,-0.956,1.041,0.423
15.556,8.026,-4.283,0.438,1.559,1.33
13.382,0.176,-2.682,1.215,1.064,2.073
11.332,-3.741,0.446,1.8,-0.093,2.571
6.806,-5.479,2.101,2.121,-1.347,2.586
2.272,-6.11,1.661,2.253,-2.042,1.869
0.501,-6.19,0.014,2.266,-2.057,0.517
3.018,-5.916,-1.191,2.31,-1.271,-0.785
6.332,-6.07,-2.042,2.205,-1.287,-1.895
8.712,-7.207,-1.746,1.969,-1.692,-3.137
12.486,-9.41,-0.647,1.514,-1.342,-4.199
18.239,-14.812,7.26,0.815,-2.233,-4.305
21.541,-16.388,15.733,-1.232,-2.919,-2.459
25.379,-13.256,22.771,-3.403,-2.707,-0.063
28.582,0.907,27.905,-5.302,-2.191,1.797
26.291,13.111,26.942,-6.053,-1.732,3.58
21.947,23.973,17.721,-5.814,-0.6,4.188
19.337,28.647,7.448,-4.022,0.556,2.677
16.782,26.851,-0.282,-1.617,1.362,0.997
14.844,14.152,-5.395,0.676,1.614,0.596
16.037,4.606,-4.091,2.096,1.348,0.788
15.522,-0.908,-0.826,2.624,0.563,1.499
12.14,-4.263,2.589,2.796,-0.776,2.272
7.508,-6.072,4.232,2.464,-1.879,2.477
4.113,-6.46,3.389,2.028,-2.228,2.021
1.916,-6.494,1.646,1.576,-2.586,1.016
1.535,-6.097,-0.883,1.456,-2.182,-0.253
3.725,-5.447,-2.503,1.635,-1.34,-1.512
6.678,-5.435,-2.472,1.728,-1.395,-2.838
9.414,-6.334,-1.842,1.635,-1.169,-4.086
14.311,-10.323,2.466,1.446,-1.294,-4.622
20.228,-12.262,10.338,0.017,-1.638,-3.566
24.052,-11.299,18.301,-2.039,-2.359,-1.134
28.292,-6.25,22.961,-4.175,-1.174,1.668
27.661,6.446,23.875,-5.704,-0.898,3.575
23.393,17.095,19.954,-6.191,-0.299,4.751
17.906,22.292,10.74,-4.99,0.567,3.758
15.591,23.683,1.363,-3.196,2.044,1.46
14.041,20.13,-4.793,-1.029,1.779,-0.479
15.875,9.191,-5.806,0.816,1.372,-0.701
18.124,3.016,-4.88,1.769,1.199,-0.099
18.13,0.213,-1.211,2.119,-0.061,1.394
14.13,-1.761,1.863,2.422,-1.907,2.575
8.103,-2.968,3.41,2.525,-2.624,2.947
4.254,-3.477,2.857,2.382,-2.604,2.406
1.823,-3.833,0.848,2.162,-2.946,0.877
1.228,-4.311,-0.632,1.998,-2.499,-1.074
3.5,-4.454,-2.121,1.801,-1.556,-2.83
7.094,-4.056,-2.442,1.75,-1.152,-4.24
11.344,-5.318,-0.627,1.897,-0.949,-5.266
15.969,-9.128,4.935,1.647,-0.977,-5.112
20.701,-12.223,10.959,0.138,-0.564,-3.327
25.59,-11.215,18.897,-2.03,-0.782,-0.453
27.995,-7.531,23.812,-4.305,-0.182,2.524
29.052,2.115,25.845,-6.532,0.163,4.412
25.455,13.101,21.322,-6.999,0.635,5.182
22.373,19.624,14.32,-5.487,0.962,4.161
18.787,19.315,5.866,-3.269,1.863,2.055
18.271,14.945,0.234,-1.056,1.43,0.171
16.584,5.963,-2.643,1.159,0.876,-0.189
17.182,-1.858,-1.97,2.013,0.508,0.192
16.04,-5.804,0.103,2.112,-0.587,1.182
12.379,-6.86,2.083,2.097,-2.438,2.159
6.486,-6.653,2.707,2.065,-3.306,2.523
2.438,-6.469,2.245,1.899,-3.692,2.196
-0.495,-6.234,1.223,1.581,-3.773,1.138
-1.479,-5.915,-0.29,1.248,-2.77,-0.34
0.257,-5.981,-1.495,0.964,-1.509,-1.854
2.899,-6.027,-2.606,0.761,-1.04,-3.309
5.928,-6.76,-2.526,0.859,-0.492,-4.873
9.99,-9.042,0.855,0.994,-0.461,-5.839
14.107,-11.614,6.163,0.172,-0.388,-5.552
18.061,-11.986,14.851,-1.629,-1.033,-3.93
21.373,-8.037,21.991,-3.607,-0.974,-0.955
23.409,1.026,26.369,-5.755,-0.683,1.679
21.969,12.252,22.796,-6.853,-0.05,3.39
19.598,19.419,17.367,-6.089,-0.349,3.741
16.357,21.882,7.93,-4.028,0.819,2.679
16.679,18.028,2.176,-1.683,1.53,0.882
15.881,9.407,-1.741,0.539,1.228,0.17
17.158,0.253,0.28,1.833,0.846,0.744
16.601,-4.273,2.263,2.141,-0.012,1.841
14.536,-6.185,4.113,2.132,-1.783,3.0
8.942,-5.854,4.522,1.944,-3.46,3.433
4.73,-5.412,4.581,1.731,-4.369,3.138
1.145,-4.816,3.175,1.463,-5.015,1.958
0.043,-4.874,1.974,1.388,-4.364,0.446
0.875,-5.075,0.32,1.306,-2.987,-1.03
2.892,-6.852,-0.892,1.117,-2.225,-2.396
4.766,-8.349,-2.068,0.887,-1.461,-3.752
9.027,-9.945,0.636,1.005,-1.057,-4.713
12.003,-13.0,5.067,0.3,-1.434,-4.681
16.114,-15.052,13.355,-1.0,-1.323,-3.235
20.241,-12.016,22.188,-2.969,-0.675,-0.839
29.353,-2.973,30.792,-4.747,0.215,1.775
27.203,9.308,29.144,-6.773,0.067,3.832
25.044,19.254,23.724,-7.157,0.737,4.834
21.509,24.682,13.989,-6.29,0.801,4.22
18.805,25.743,3.545,-4.265,1.182,2.842
11.566,18.748,-5.168,-2.023,0.8,1.561
13.272,8.355,-6.238,0.36,1.405,1.047
14.673,0.992,-3.872,1.896,0.89,0.995
14.392,-3.232,-0.537,2.643,-0.186,1.548
11.911,-5.413,2.554,3.043,-1.968,2.205
8.027,-6.31,4.19,3.121,-3.871,2.397
4.172,-7.049,5.193,2.74,-5.366,1.819
0.834,-6.954,3.875,2.015,-5.958,0.699
-0.342,-6.291,1.814,1.347,-5.609,-1.029
-0.225,-6.371,-0.189,0.815,-4.446,-3.106
2.177,-5.896,-1.506,0.609,-2.661,-4.976
5.868,-5.673,-0.535,0.782,-1.462,-6.301
11.064,-6.459,3.655,0.765,-0.527,-6.538
17.004,-7.808,9.909,-0.138,-0.059,-5.239
21.552,-7.243,16.394,-1.854,-0.275,-2.707
26.561,-3.34,22.723,-3.939,-0.168,0.519
31.504,3.668,25.832,-6.114,-0.374,3.299
27.661,15.291,22.867,-7.5,-0.902,4.873
20.283,22.419,16.492,-6.941,-0.973,4.966
15.949,24.467,8.673,-5.324,-0.244,3.833
12.643,21.746,0.995,-3.284,0.261,2.19
8.525,13.986,-4.002,-1.216,0.832,1.291
10.537,3.148,-4.905,0.509,1.462,1.319
12.897,-3.104,-3.386,1.173,1.101,1.798
12.326,-5.986,-0.679,1.499,-0.104,2.428
8.15,-7.418,1.086,1.506,-1.679,2.757
3.513,-6.443,1.116,1.42,-2.637,2.351
0.245,-6.304,-0.022,1.297,-3.585,1.088
-1.079,-5.917,-1.052,1.199,-3.588,-0.597
-0.489,-5.508,-2.212,1.135,-3.09,-2.463
1.547,-4.692,-2.676,1.265,-2.205,-4.214
5.69,-4.986,-1.172,1.739,-1.36,-5.721
10.302,-7.458,3.343,1.723,-0.791,-6.592
17.411,-9.099,9.18,0.568,-0.644,-6.068
22.248,-8.967,15.629,-1.276,-1.083,-3.84
25.684,-6.02,21.291,-3.441,-1.587,-0.566
27.247,3.843,24.878,-5.826,-1.722,2.117
23.24,13.841,20.62,-6.907,-1.353,3.826
17.511,19.539,14.013,-6.226,-1.129,4.007
14.223,21.184,5.89,-4.618,0.158,2.658
14.823,17.392,0.397,-2.665,1.35,1.022
13.861,7.318,-4.045,-0.922,1.314,0.711
16.389,0.104,-2.796,0.032,1.086,1.579
16.43,-3.076,-1.048,0.424,0.198,2.877
13.888,-4.058,1.676,0.693,-1.589,3.999
8.097,-2.904,1.955,0.781,-3.353,4.157
3.797,-1.648,1.241,0.821,-4.296,3.216
1.514,-1.47,0.456,0.811,-4.912,1.357
1.885,-1.72,-0.127,0.9,-4.41,-0.85
4.044,-3.544,-0.545,0.882,-4.029,-3.15
6.845,-5.02,-1.162,0.954,-3.381,-5.165
11.689,-8.092,1.275,1.433,-2.71,-6.602
16.968,-11.066,5.697,1.343,-1.436,-6.479
21.765,-14.023,12.624,-0.029,-1.947,-4.617
26.866,-10.772,18.019,-2.085,-0.777,-1.348
31.173,-5.378,21.325,-4.216,0.055,2.144
28.187,6.475,20.13,-5.967,0.351,4.487
25.685,14.954,15.109,-6.229,0.047,5.201
20.671,20.298,6.826,-4.919,1.416,4.209
17.039,17.972,0.081,-2.851,1.873,2.176
14.534,12.126,-2.37,-0.688,1.321,0.491
15.399,1.923,-3.014,0.752,1.138,0.214
13.672,-4.427,-1.717,1.403,0.286,0.645
12.508,-7.478,0.328,1.653,-1.144,1.173
9.392,-7.474,1.712,1.818,-2.927,1.496
4.918,-6.581,1.927,1.706,-4.212,0.803
2.367,-6.404,1.322,1.63,-4.415,-0.324
1.445,-6.725,0.503,1.408,-4.019,-1.779
1.782,-7.232,-0.882,1.088,-3.188,-3.275
2.89,-8.256,-1.497,0.699,-2.183,-4.682
5.752,-9.993,-0.905,0.583,-0.814,-5.306
9.915,-12.608,2.28,0.07,-0.265,-5.068
17.101,-12.94,9.005,-1.253,-0.145,-3.504
23.334,-10.928,15.997,-3.052,0.349,-0.646
30.898,-6.415,21.002,-4.912,1.05,2.471
32.249,7.65,21.988,-6.573,0.583,4.366
27.817,16.899,17.521,-6.441,0.941,5.388
21.893,21.122,10.43,-4.947,1.677,4.438
19.494,20.575,3.845,-2.742,2.077,2.278
16.456,14.639,0.775,-0.567,1.303,0.819
14.267,1.086,-0.733,1.305,1.314,1.082
14.969,-3.816,0.616,2.021,0.25,1.379
13.115,-5.443,2.547,2.458,-1.708,1.851
8.116,-7.122,4.341,2.472,-3.79,1.83
3.266,-5.771,3.76,2.334,-4.072,0.818
3.207,-5.71,3.576,2.061,-3.939,-0.826
4.436,-7.236,2.932,1.671,-3.932,-2.473
6.01,-9.254,1.496,1.145,-3.184,-3.665
8.202,-9.675,-0.118,0.611,-2.104,-4.396
10.356,-11.126,-0.331,0.212,-1.913,-4.625
10.933,-13.31,1.897,-0.833,-2.167,-4.435
14.709,-14.374,7.235,-2.304,-0.872,-3.599
20.174,-11.648,14.487,-4.212,-1.407,-1.834
23.978,-6.567,20.247,-5.672,-1.871,1.079
23.17,7.511,24.044,-6.373,-1.923,3.048
21.832,18.012,21.335,-5.781,-0.742,4.274
18.199,23.344,15.116,-4.39,-1.225,3.964
15.693,23.52,7.496,-2.248,0.143,2.672
14.246,20.574,3.439,-0.184,1.091,0.756
15.36,8.113,1.432,1.212,1.409,0.218
15.469,0.442,2.897,2.113,0.217,0.355
13.618,-3.562,5.373,2.761,-0.767,1.439
8.914,-5.873,6.853,3.219,-1.712,2.381
4.802,-7.21,5.457,3.463,-2.758,2.53
2.534,-7.442,3.314,3.536,-2.732,1.838
3.419,-8.028,2.249,3.32,-2.169,0.843
5.359,-8.311,1.056,2.928,-2.159,-0.329
6.94,-9.075,0.707,2.3,-2.473,-1.487
8.514,-9.845,1.7,1.565,-2.068,-2.439
9.276,-11.929,3.896,0.868,-2.518,-3.093
9.571,-14.442,7.395,-0.301,-2.461,-3.189
14.872,-14.126,14.597,-2.136,-1.763,-2.372
19.305,-9.826,18.969,-4.083,-1.537,-0.391
24.255,-4.091,22.194,-5.765,-1.373,1.947
23.782,7.878,22.421,-6.873,-1.496,3.452
22.111,17.828,17.927,-6.638,-1.336,4.353
15.991,21.819,9.389,-5.289,-1.026,4.001
12.505,20.768,2.134,-3.444,0.107,2.403
9.55,17.924,-3.268,-1.34,0.915,0.597
12.655,8.504,-5.3,0.627,1.736,-0.057
14.928,2.256,-3.668,2.049,1.183,-0.346
15.335,-1.645,-0.775,3.196,0.228,0.03
13.466,-4.434,3.557,4.021,-1.09,0.681
9.358,-6.992,6.356,4.335,-2.309,1.249
4.154,-7.572,6.494,4.172,-2.691,1.188
1.534,-8.627,5.072,3.792,-2.279,0.535
1.163,-8.655,3.046,3.232,-1.396,-0.447
2.664,-8.051,0.389,2.73,-0.315,-1.608
5.964,-7.29,-1.229,2.417,0.529,-2.91
9.918,-8.534,0.099,2.159,0.661,-4.148
11.896,-11.067,5.531,1.235,0.833,-4.893
14.752,-12.448,13.931,-0.635,0.379,-5.084
15.406,-12.128,23.447,-2.828,-1.478,-3.701
16.019,-8.12,31.198,-5.08,-2.756,-0.851
15.795,-1.181,35.257,-7.082,-2.431,1.472
15.431,8.891,32.165,-7.957,-1.644,2.904
14.368,15.197,24.019,-7.067,-1.28,3.555
14.753,17.326,14.364,-5.11,0.694,2.997
15.332,14.311,6.797,-2.658,1.75,1.397
14.871,9.273,1.633,-0.235,0.661,0.711
14.972,2.75,0.931,1.947,-1.184,0.812
13.445,-2.106,3.047,3.385,-2.469,1.341
10.981,-4.985,5.897,4.01,-3.943,1.548
6.922,-7.058,7.079,3.95,-4.761,1.448
4.244,-7.685,6.655,3.63,-4.79,0.931
2.234,-8.715,5.85,3.132,-4.29,0.056
1.52,-9.153,4.489,2.621,-3.108,-0.86
2.51,-8.881,1.803,2.214,-2.037,-1.684
5.361,-7.153,0.063,2.168,-1.667,-2.516
7.768,-7.031,-0.543,2.297,-1.061,-3.467
12.208,-9.425,0.91,2.295,-0.914,-4.006
14.109,-13.294,4.789,1.612,-1.394,-3.906
17.8,-14.806,14.332,-0.319,-1.481,-2.665
17.53,-13.393,23.711,-2.664,-0.763,-0.621
20.09,-8.062,33.387,-5.041,-0.275,0.724
16.674,3.609,37.854,-7.16,-0.529,1.596
16.091,14.423,35.363,-8.303,0.152,2.201
13.218,21.611,26.231,-7.059,0.264,1.962
13.136,23.457,16.328,-4.786,0.376,0.907
12.253,21.018,6.973,-2.076,0.243,0.798
15.29,13.476,1.609,0.76,0.341,1.191
15.682,7.404,1.417,3.315,-0.73,1.476
14.542,1.928,3.774,4.663,-1.643,1.637
12.412,-2.027,6.218,5.09,-3.019,1.819
7.92,-5.04,7.752,4.981,-3.955,1.898
3.378,-6.131,6.983,4.442,-4.173,1.401
1.346,-6.513,5.289,4.058,-2.998,0.51
2.152,-6.889,3.357,3.748,-1.521,-0.169
4.591,-6.5,2.339,3.591,-1.001,-0.807
7.433,-5.427,1.184,3.631,-1.242,-1.658
10.121,-5.753,2.221,3.873,-1.271,-2.556
13.14,-7.663,5.0,3.645,-1.982,-3.396
14.826,-11.815,10.77,2.51,-2.772,-4.167
18.416,-14.067,19.657,0.075,-3.064,-3.639
19.772,-12.312,28.236,-2.566,-3.075,-1.307
22.575,-7.963,36.04,-5.106,-2.003,1.485
27.13,4.812,41.613,-7.341,-2.704,2.524
23.852,18.77,37.24,-8.362,-3.071,3.941
17.865,27.265,26.731,-6.789,-1.983,4.207
15.072,28.586,16.157,-4.476,-0.366,2.739
12.833,26.529,7.075,-1.847,-0.086,0.961
9.54,14.144,0.474,0.97,1.404,1.554
11.645,3.015,0.712,3.175,1.76,1.924
12.049,-4.455,2.902,3.733,0.678,2.472
10.401,-7.995,3.914,3.565,-0.892,2.791
7.21,-9.799,3.706,3.121,-2.393,3.136
1.884,-8.872,2.43,2.405,-3.345,2.66
-0.229,-7.6,0.644,1.843,-3.101,1.555
0.091,-6.907,-0.78,1.573,-2.128,0.076
3.316,-5.718,-0.896,1.731,-1.085,-0.925
5.869,-5.321,0.042,1.875,-1.46,-2.016
7.718,-4.266,0.107,2.162,-1.585,-3.143
10.636,-3.922,2.498,2.71,-1.549,-4.376
13.637,-5.2,7.73,2.787,-2.24,-5.324
16.596,-7.874,12.647,1.612,-2.651,-5.557
19.725,-7.532,18.911,-0.448,-2.839,-4.272
23.4,-4.912,28.846,-2.836,-2.857,-1.404
26.257,0.621,39.81,-5.396,-2.292,1.778
29.731,13.885,43.843,-7.441,-1.934,4.257
26.229,24.757,42.57,-8.569,-1.719,5.793
23.027,30.77,35.285,-8.085,-0.571,5.783
19.0,32.06,23.96,-6.328,0.182,4.214
14.513,29.28,9.343,-4.012,0.794,2.222
11.905,19.528,0.854,-1.26,1.963,0.99
14.548,10.617,-1.34,1.626,2.168,0.353
16.762,3.945,0.534,3.674,2.149,0.711
18.04,-0.155,3.585,4.575,0.847,1.666
17.376,-1.975,6.797,4.983,-1.968,2.559
11.729,-3.887,8.439,4.546,-4.731,2.327
7.323,-3.616,7.323,3.966,-5.299,1.756
4.584,-3.638,6.309,3.562,-5.611,0.241
3.868,-3.458,5.417,3.363,-4.583,-1.695
5.29,-3.71,4.635,3.356,-2.874,-3.175
8.465,-3.09,4.356,3.948,-1.5,-3.789
10.907,-3.461,7.416,4.608,-1.143,-4.528
12.933,-6.874,10.796,4.473,-0.337,-4.644
15.556,-11.517,16.189,2.872,-0.065,-4.2
17.668,-11.801,24.884,0.155,-1.401,-3.066
21.142,-8.435,35.367,-2.751,-1.827,-0.345
28.056,-2.009,42.903,-5.717,-2.35,2.536
26.915,10.457,43.693,-7.98,-3.225,4.575
24.274,20.51,38.528,-8.515,-3.249,5.783
21.064,25.11,28.032,-7.219,-2.012,5.915
16.407,24.719,14.06,-5.114,-0.908,4.289
9.914,20.28,2.287,-2.431,0.324,2.56
11.533,11.999,-2.704,0.508,0.953,1.547
12.605,6.326,-3.584,3.314,0.499,1.138
13.006,0.155,-0.541,5.016,-0.367,1.341
11.303,-4.293,1.872,5.216,-1.813,1.451
7.892,-6.829,3.962,4.677,-4.009,1.363
2.929,-7.733,4.66,3.923,-4.722,0.676
1.318,-8.388,4.758,3.13,-4.399,-0.128
0.389,-7.464,3.099,2.397,-3.985,-1.326
2.261,-5.929,2.654,2.526,-2.823,-2.326
5.379,-4.658,2.336,3.063,-1.412,-3.167
9.361,-4.044,2.936,3.598,-1.225,-3.708
12.787,-4.351,4.635,3.934,-1.796,-4.215
14.877,-7.249,8.387,3.569,-1.942,-4.472
20.931,-10.331,16.79,1.734,-2.097,-3.847
22.013,-10.385,26.34,-0.947,-3.083,-1.777
26.67,-5.514,36.917,-3.667,-2.543,0.978
30.884,3.19,44.469,-6.34,-1.626,3.626
31.434,14.954,43.703,-8.24,-0.518,5.073
27.058,23.689,34.939,-7.679,0.027,5.689
25.366,26.592,23.369,-5.596,1.439,4.726
20.519,23.414,11.016,-3.075,1.86,2.943
15.728,15.501,1.64,-0.307,1.831,1.35
14.891,6.087,-1.088,2.433,0.995,1.086
14.034,-0.782,0.516,3.966,0.153,1.209
12.801,-4.631,3.88,4.373,-1.171,1.485
11.047,-6.884,6.322,4.192,-2.82,1.838
7.471,-7.504,7.594,3.632,-4.336,1.762
5.023,-7.195,7.871,3.101,-4.756,1.271
3.322,-7.052,7.59,2.632,-4.883,0.449
2.524,-6.993,6.484,2.325,-4.12,-0.368
2.265,-6.343,4.856,2.258,-2.829,-1.169
3.951,-5.451,3.218,2.523,-1.596,-1.891
5.576,-5.181,2.26,2.923,-0.996,-2.732
7.96,-5.531,2.286,3.212,-0.651,-3.579
11.288,-7.926,4.703,2.986,-0.992,-4.397
16.41,-10.178,10.504,1.748,-2.564,-4.783
23.295,-7.948,17.862,-0.484,-3.782,-3.521
29.394,-4.192,28.497,-3.07,-4.902,-0.808
39.36,7.083,40.919,-5.582,-4.737,2.049
38.344,26.319,45.305,-7.539,-5.769,4.966
29.411,35.923,38.628,-7.689,-4.013,6.588
22.612,39.256,29.484,-6.119,-2.434,5.772
18.53,38.63,16.237,-3.904,-0.12,3.443
9.955,29.607,1.815,-1.464,0.771,1.15
11.157,12.897,-5.642,1.172,3.115,-0.688
17.857,5.083,-3.865,3.047,2.947,-1.038
17.876,-1.181,-0.938,3.973,1.868,-0.262
14.902,-3.86,2.697,4.51,-0.107,0.668
11.14,-5.516,4.49,4.848,-1.789,1.281
8.169,-6.442,5.872,4.725,-3.418,1.248
4.657,-7.339,5.83,4.171,-4.269,0.632
3.076,-7.739,5.016,3.509,-3.735,-0.132
2.39,-8.517,3.649,2.71,-2.664,-0.774
2.643,-8.544,2.084,1.97,-1.664,-1.258
2.645,-7.958,0.08,1.466,-0.564,-1.853
4.227,-7.877,-0.752,1.233,0.318,-2.6
5.524,-9.304,0.218,0.97,0.588,-3.634
7.273,-13.8,4.693,0.177,1.013,-4.589
13.463,-16.822,21.051,-1.861,-0.444,-4.423
21.661,-12.031,37.33,-3.87,-1.298,-1.957
31.48,1.99,47.173,-5.843,-2.078,0.714
30.715,14.92,49.002,-7.244,-1.824,2.997
31.404,26.192,43.932,-6.897,-1.568,4.842
27.121,31.886,26.706,-4.747,0.176,4.989
21.533,28.062,10.189,-2.248,1.176,2.939
13.742,14.524,0.938,0.468,1.323,1.226
15.362,3.456,-1.134,2.826,0.457,0.409
14.924,-3.265,1.469,3.965,-1.239,0.163
13.146,-5.819,4.63,4.413,-2.77,0.445
10.608,-7.498,7.354,4.43,-3.982,0.903
7.128,-8.053,8.186,4.063,-4.556,0.905
4.505,-8.467,7.975,3.573,-4.776,0.551
2.277,-9.125,6.991,3.097,-4.09,0.012
1.93,-9.647,5.622,2.539,-3.056,-0.335
1.43,-8.922,3.101,1.98,-2.124,-0.781
1.893,-8.327,0.676,1.602,-1.122,-1.368
3.354,-9.044,-0.633,1.259,-0.209,-2.383
5.733,-11.222,-0.267,0.791,-0.075,-3.661
8.537,-18.241,8.228,-0.214,-0.827,-4.57
15.213,-17.627,23.187,-2.172,-1.678,-3.407
22.867,-12.35,36.843,-4.143,-1.48,-1.075
28.083,1.119,45.35,-6.077,-2.609,1.242
27.284,13.23,45.547,-6.841,-1.246,3.811
27.708,26.006,34.93,-5.897,0.189,5.127
23.958,27.129,18.379,-3.608,1.212,4.008
20.076,23.147,4.962,-1.097,0.911,2.006
17.269,11.011,-1.617,1.477,1.126,0.887
18.174,2.572,-1.496,3.083,-0.804,0.06
16.292,-2.315,2.436,3.666,-2.355,0.143
13.695,-3.426,6.107,3.928,-3.719,0.439
9.894,-5.073,8.566,4.008,-4.482,0.644
6.176,-6.059,8.916,3.825,-4.826,0.305
3.265,-7.724,8.281,3.449,-4.284,-0.298
2.308,-8.855,7.012,3.121,-3.05,-0.832
2.116,-9.899,6.063,2.65,-2.143,-1.073
1.547,-9.341,4.033,2.093,-1.225,-1.275
2.237,-8.509,1.712,1.86,0.279,-1.414
4.384,-8.536,1.108,1.79,0.822,-1.87
5.665,-9.414,1.322,1.434,0.813,-2.773
7.345,-12.833,4.333,0.844,1.069,-3.813
10.184,-16.719,16.541,-0.727,0.064,-4.093
14.117,-14.56,30.284,-2.884,-0.685,-2.677
19.877,-5.546,40.652,-5.006,-1.243,-0.504
22.969,4.633,44.082,-6.885,-1.67,1.535
23.012,15.713,41.247,-7.767,-1.539,3.402
22.249,24.659,28.429,-6.595,-0.34,4.208
19.468,25.385,13.691,-4.383,0.493,3.09
15.411,19.145,1.859,-1.855,1.061,1.418
13.81,10.324,-2.298,0.912,1.147,0.257
14.586,3.204,-1.916,3.135,0.623,-0.294
14.744,-1.619,0.575,4.333,-0.464,-0.265
14.136,-4.354,4.021,4.896,-2.271,0.105
11.324,-6.595,7.539,4.996,-4.019,0.473
7.764,-6.636,8.548,4.643,-4.868,0.504
5.295,-6.694,8.577,4.25,-5.118,-0.032
3.395,-6.694,7.718,3.831,-4.719,-1.109
3.599,-6.339,6.184,3.516,-3.492,-2.316
5.442,-6.019,4.305,3.215,-2.357,-3.54
8.299,-6.253,3.886,2.859,-1.846,-4.357
11.242,-8.207,4.436,2.033,-1.335,-4.59
15.228,-10.166,7.602,0.675,-1.074,-3.995
19.196,-11.753,12.827,-1.376,-1.198,-2.721
22.535,-11.032,21.932,-3.703,-1.888,-0.279
27.133,-6.215,29.846,-5.761,-0.83,2.492
32.028,8.428,34.411,-7.374,-0.521,3.999
29.935,19.837,30.772,-7.974,-0.304,4.84
25.955,27.139,23.46,-6.485,0.269,4.402
23.788,29.694,12.129,-3.945,2.319,2.645
21.781,26.543,3.455,-1.221,2.031,0.545
17.585,13.997,-1.591,1.486,1.327,-0.245
17.436,4.395,-0.618,3.67,0.849,-0.652
17.753,-1.742,2.205,4.277,-0.203,0.011
14.708,-4.078,4.441,4.173,-2.356,0.976
9.371,-4.6,4.523,3.896,-3.49,1.787
5.298,-4.07,3.674,3.581,-3.513,1.966
3.709,-3.709,2.548,3.296,-3.372,1.711
2.803,-3.425,1.534,3.038,-3.111,0.856
3.391,-3.943,1.323,2.843,-2.357,-0.274
5.49,-3.895,1.537,2.821,-1.72,-1.595
8.348,-3.769,2.926,3.018,-1.681,-2.83
10.886,-4.074,4.628,3.266,-1.756,-4.046
14.054,-6.242,7.203,3.342,-1.509,-4.875
18.302,-12.307,11.318,2.481,-1.416,-4.75
22.345,-16.612,23.229,0.281,-3.068,-2.928
26.786,-14.356,33.536,-2.309,-1.382,-0.157
34.995,-4.928,42.711,-4.911,-1.28,2.442
33.205,7.441,43.157,-7.234,-0.938,4.613
31.184,20.256,39.248,-7.402,0.173,5.646
28.52,28.068,24.912,-5.571,2.489,4.655
24.711,27.717,11.411,-3.129,1.852,2.565
18.607,19.056,0.472,-0.437,2.446,0.902
20.843,7.743,-0.97,2.219,1.662,0.119
19.678,0.725,-0.109,3.487,-0.204,0.213
17.521,-2.809,3.219,3.916,-1.958,0.932
14.422,-4.361,6.017,3.875,-3.991,1.681
8.86,-4.391,6.857,3.49,-5.446,1.996
4.213,-2.896,5.459,2.994,-5.472,1.506
2.163,-2.2,4.233,2.596,-4.948,0.355
1.318,-2.097,3.083,2.305,-3.833,-1.128
3.268,-2.226,1.907,2.54,-2.085,-2.7
7.168,-2.91,1.587,2.993,-1.151,-4.032
12.415,-4.436,2.557,3.392,-0.753,-5.142
18.283,-8.132,6.79,3.357,-0.797,-5.689
23.398,-14.593,13.575,1.757,-1.791,-4.994
27.048,-16.467,25.856,-0.879,-3.326,-2.403
32.925,-10.67,40.185,-3.638,-2.626,0.64
37.632,-0.448,49.611,-6.197,-1.843,3.712
35.628,12.833,48.277,-8.244,-1.089,5.505
34.322,25.281,40.135,-7.564,0.459,5.981
30.939,29.824,25.619,-5.559,2.04,4.478
25.144,26.205,9.28,-3.071,2.009,2.439
19.687,17.397,-0.926,-0.323,1.34,0.495
19.251,7.523,-2.45,2.447,0.46,-0.183
17.706,1.409,0.629,3.935,-0.812,-0.173
16.618,-1.499,4.808,4.661,-2.342,0.404
13.282,-3.248,8.49,4.801,-4.139,1.068
8.432,-3.819,9.29,4.461,-4.953,1.425
4.577,-4.059,8.799,3.986,-4.939,1.288
1.554,-4.638,7.526,3.473,-4.603,0.487
0.119,-5.195,5.686,3.025,-3.533,-0.8
1.803,-5.35,3.098,2.945,-2.06,-2.215
5.482,-5.315,2.593,3.185,-1.281,-3.475
9.647,-6.634,2.367,3.295,-0.792,-4.494
14.827,-9.537,5.37,3.01,-0.923,-4.878
19.494,-13.174,10.302,1.789,-1.708,-4.355
22.734,-15.131,19.632,-0.401,-2.496,-2.531
24.362,-12.536,28.947,-3.048,-2.594,0.33
28.24,-3.322,39.112,-5.453,-1.5,2.74
27.404,10.195,39.599,-7.417,-0.833,3.931
25.563,21.061,34.591,-7.775,0.377,4.681
23.37,27.155,23.724,-6.421,1.258,4.176
21.724,27.618,11.554,-4.23,1.953,2.48
18.158,20.457,0.251,-1.784,1.153,1.251
17.206,10.064,-3.203,0.7,0.529,1.036
16.699,3.128,-1.955,2.571,-0.524,0.936
15.129,-0.997,1.408,3.411,-1.766,1.098
12.619,-3.82,5.274,3.709,-3.364,1.364
8.172,-4.65,6.79,3.605,-4.675,1.323
4.612,-4.743,6.872,3.425,-4.871,0.864
1.737,-4.951,5.746,3.119,-4.624,-0.125
0.809,-5.231,4.212,2.987,-3.78,-1.526
2.421,-4.927,2.311,3.15,-2.478,-2.952
6.397,-5.852,1.866,3.421,-1.434,-4.057
10.836,-7.964,2.376,3.466,-0.88,-4.64
15.038,-12.113,6.596,2.903,-0.834,-4.648
18.441,-14.786,12.791,1.048,-1.012,-3.772
20.276,-15.129,23.555,-1.605,-2.039,-1.782
23.683,-8.676,34.406,-4.217,-1.94,1.04
25.756,1.554,40.75,-6.566,-1.265,3.515
25.063,15.315,37.49,-7.848,-0.21,4.651
24.125,23.081,28.632,-6.594,0.448,4.8
22.696,25.154,15.44,-4.284,2.136,3.57
21.796,20.307,3.342,-1.918,2.582,1.568
20.268,12.025,-3.472,0.326,1.228,0.082
19.166,2.903,-3.662,2.188,-0.032,0.004
17.971,-1.677,-0.005,2.761,-0.786,0.626
15.879,-3.051,3.586,2.789,-2.637,1.553
8.913,-2.989,4.977,2.746,-4.1,1.961
3.493,-2.524,4.341,2.731,-3.586,1.595
1.163,-2.652,3.355,2.605,-2.99,0.52
0.394,-2.999,2.356,2.554,-2.145,-1.217
4.045,-2.801,1.869,2.822,-1.025,-2.894
9.009,-3.18,1.402,3.016,-0.136,-4.045
14.341,-4.206,3.029,3.189,0.045,-4.536
18.489,-7.042,6.098,2.998,-0.448,-4.497
20.756,-11.424,11.411,1.73,-1.435,-3.574
19.851,-13.145,17.136,-0.63,-2.417,-1.905
20.867,-11.629,25.864,-3.146,-2.472,0.469
23.035,-5.134,35.018,-5.548,-2.072,2.952
22.852,7.716,37.452,-7.518,-1.102,4.523
23.72,20.2,31.608,-7.676,0.081,5.164
24.423,25.841,22.03,-5.915,1.016,4.49
23.141,26.519,11.634,-3.197,1.617,2.81
21.594,20.278,2.746,-0.36,1.38,1.175
20.583,9.814,-0.543,2.214,0.046,0.751
17.531,1.744,2.105,3.714,-1.673,0.854
13.361,-3.29,7.032,3.986,-2.715,1.332
9.059,-5.966,9.178,3.438,-3.842,1.741
3.274,-5.552,7.445,2.653,-4.244,1.486
0.137,-5.583,4.865,2.2,-3.25,0.522
-0.107,-5.57,2.091,2.119,-1.761,-0.843
2.655,-5.037,-0.069,2.4,-0.416,-2.008
6.119,-5.123,-0.301,2.748,0.058,-3.043
9.779,-6.492,1.53,3.019,0.309,-4.075
13.867,-10.466,7.677,2.359,-0.327,-4.844
17.494,-12.419,16.468,0.073,-1.485,-4.489
18.219,-11.98,28.216,-2.487,-3.01,-2.57
22.058,-6.864,39.534,-5.005,-2.166,0.107
21.346,6.395,42.676,-7.328,-1.874,2.108
21.164,18.786,36.354,-7.852,-0.734,3.43
20.241,24.427,26.431,-5.841,0.094,3.494
21.125,24.36,14.964,-3.335,1.499,1.961
18.592,18.887,3.208,-0.892,0.503,0.045
19.568,6.402,-1.164,1.52,-0.453,-0.584
17.553,-1.697,0.321,2.993,-1.845,-0.416
15.236,-5.024,3.186,3.402,-2.536,0.395
11.297,-5.217,4.646,3.353,-3.683,1.18
6.952,-4.027,5.391,3.339,-4.06,1.481
3.62,-3.086,5.159,3.294,-3.812,1.085
2.788,-3.096,4.72,3.294,-3.245,0.133
3.297,-3.046,3.937,3.425,-2.624,-1.417
6.34,-3.214,3.072,3.688,-1.796,-3.075
10.725,-4.865,3.792,3.835,-1.099,-4.511
16.008,-9.195,7.162,3.39,-0.922,-5.358
20.443,-14.018,13.04,1.51,-1.498,-5.038
22.784,-15.94,24.356,-1.09,-2.749,-3.03
25.166,-12.455,36.983,-3.81,-2.651,-0.003
29.279,-2.087,46.168,-6.386,-2.206,2.627
26.738,13.362,44.992,-8.307,-1.646,4.047
25.344,25.728,36.508,-7.36,-0.333,4.418
24.987,30.343,22.246,-5.068,1.258,3.04
24.263,27.322,9.016,-2.34,1.788,0.988
19.773,17.252,-0.419,0.198,0.959,-0.251
19.693,5.877,-1.711,2.667,0.145,-0.066
17.321,-1.299,1.867,3.644,-1.385,0.515
14.063,-3.815,5.957,3.946,-2.692,1.495
8.735,-4.642,7.705,3.717,-4.208,2.177
3.962,-4.314,7.47,3.535,-4.583,2.172
0.464,-4.642,6.3,3.26,-4.396,1.385
-1.034,-5.825,4.419,3.007,-3.005,0.285
0.1,-6.98,2.595,2.64,-1.537,-0.962
3.116,-7.36,0.431,2.389,-0.631,-2.28
6.804,-7.406,-0.617,2.308,0.039,-3.572
11.99,-10.683,-0.621,2.182,-0.002,-4.749
15.891,-15.844,4.788,1.723,-1.163,-5.08
21.747,-16.148,15.688,0.258,-2.669,-3.862
25.255,-11.604,29.613,-1.991,-2.908,-1.175
30.525,-1.588,38.672,-4.266,-2.775,1.723
27.848,12.089,40.661,-6.334,-1.927,4.148
27.167,25.506,35.29,-6.682,-1.261,5.502
21.012,30.076,23.162,-5.163,0.169,4.967
19.222,28.237,9.649,-2.599,1.413,3.074
15.509,18.854,1.338,-0.118,1.393,1.344
16.712,8.562,0.272,2.418,0.61,0.7
15.414,0.542,2.023,3.572,-0.001,0.755
14.774,-3.226,5.564,3.832,-1.693,1.309
10.029,-5.831,7.298,3.797,-3.693,1.681
5.354,-6.128,7.609,3.706,-4.411,1.748
2.139,-6.242,6.955,3.41,-4.773,1.103
0.317,-6.367,5.726,3.076,-4.065,-0.048
1.164,-6.416,3.277,2.859,-2.383,-1.443
4.808,-6.022,1.626,2.859,-1.284,-2.669
8.005,-7.034,1.594,2.81,-0.854,-3.938
12.152,-9.459,4.045,2.69,-0.226,-4.895
14.664,-13.504,9.453,1.419,-0.421,-5.17
17.401,-15.338,19.49,-0.729,-1.558,-4.137
17.362,-12.221,31.232,-3.259,-2.367,-1.573
20.711,-5.744,40.856,-5.6,-1.16,1.276
19.102,8.274,41.5,-7.72,-0.75,2.736
21.066,20.545,35.274,-7.82,-0.22,3.714
19.603,25.719,23.526,-6.066,0.336,3.52
19.51,24.082,10.451,-3.645,1.734,1.786
17.752,17.655,0.593,-1.106,0.561,0.317
17.378,5.772,-1.883,1.319,-0.78,0.429
14.036,-1.932,-0.164,2.909,-1.743,0.725
11.865,-5.173,3.245,3.344,-2.466,1.16
8.306,-6.836,5.608,3.216,-3.908,1.484
3.259,-5.55,5.101,2.865,-4.104,1.223
1.173,-4.922,3.775,2.597,-3.178,0.375
1.229,-4.963,2.374,2.485,-2.129,-0.929
3.91,-4.354,1.123,2.729,-1.294,-2.303
7.458,-4.623,1.23,3.082,-0.864,-3.645
11.609,-5.821,3.037,3.304,-0.691,-4.646
15.597,-9.986,6.695,2.862,-0.839,-5.042
18.279,-13.979,12.286,1.287,-1.517,-4.508
19.863,-14.485,21.865,-1.269,-2.349,-3.024
21.447,-9.996,30.646,-3.914,-2.649,-0.089
25.304,-2.851,37.124,-6.324,-1.697,2.624
23.095,12.253,36.081,-8.039,-1.26,3.73
23.41,24.059,30.232,-7.75,-0.875,4.27
19.962,27.557,19.16,-5.812,-0.031,3.779
18.01,24.305,8.969,-3.208,1.244,2.059
13.512,16.44,1.1,-0.562,0.568,0.83
13.776,4.794,-0.333,1.945,-0.157,1.3
10.225,-3.086,0.866,3.326,-1.161,1.612
8.802,-7.167,3.121,3.771,-2.013,1.89
5.782,-8.501,3.958,3.436,-3.16,1.827
2.783,-6.799,3.29,2.921,-3.425,1.159
1.652,-5.909,2.05,2.593,-2.838,-0.05
3.206,-5.174,1.291,2.641,-1.862,-1.278
6.19,-4.249,1.147,2.876,-1.382,-2.377
9.412,-3.78,2.247,3.331,-1.209,-3.305
12.949,-4.706,5.007,3.777,-1.122,-4.044
16.043,-8.979,10.642,3.141,-1.66,-4.441
18.147,-11.021,16.277,0.866,-2.203,-4.074
18.719,-11.668,23.848,-1.805,-3.159,-2.542
21.438,-7.993,31.395,-4.529,-2.997,0.169
24.209,3.195,37.188,-7.107,-2.978,2.475
20.973,15.855,33.026,-8.24,-2.127,3.994
19.524,23.757,24.626,-6.816,-1.181,4.317
19.143,26.549,13.469,-4.286,0.358,3.19
18.104,24.128,4.415,-1.305,1.048,1.284
16.324,12.473,-1.361,1.429,0.723,0.487
17.207,4.251,-0.19,3.363,-0.596,0.702
14.587,-1.664,4.018,3.993,-1.823,1.436
11.276,-3.654,8.061,3.709,-2.902,2.223
6.099,-4.302,8.797,2.974,-4.262,2.261
1.31,-2.411,6.44,2.59,-4.172,1.218
1.351,-2.404,4.759,2.833,-3.092,-0.624
3.856,-2.13,4.347,3.318,-2.364,-2.525
7.404,-2.296,4.837,3.841,-1.394,-4.05
11.575,-3.343,7.28,4.197,-0.548,-4.964
15.024,-7.082,10.726,3.726,0.625,-5.164
17.438,-11.106,15.371,1.87,0.055,-4.775
17.467,-12.198,22.244,-0.764,-1.269,-3.65
16.315,-10.573,32.151,-3.532,-2.528,-1.546
17.158,-4.178,41.446,-6.133,-2.484,0.922
14.21,12.112,41.687,-8.014,-3.102,1.914
12.833,24.994,35.295,-7.469,-1.55,2.704
14.811,28.812,26.638,-4.873,0.09,2.68
17.42,27.912,17.212,-1.894,1.225,1.894
16.022,20.884,7.181,0.802,0.839,0.804
17.955,7.087,5.056,3.064,0.171,1.429
16.056,-2.153,7.546,3.88,-1.974,2.163
10.846,-5.039,9.269,3.366,-3.225,2.864
5.193,-5.869,7.68,2.562,-3.869,2.947
1.366,-4.956,5.118,2.045,-3.769,2.363
-0.542,-4.059,2.742,2.098,-3.055,0.787
1.117,-3.763,0.556,2.529,-1.785,-1.067
4.606,-4.393,0.154,2.885,-0.979,-2.832
8.665,-5.348,1.01,3.146,-0.374,-4.301
13.353,-7.797,5.126,2.9,-0.637,-5.073
16.366,-10.356,9.755,1.515,-1.253,-4.783
18.472,-11.734,18.637,-0.901,-2.451,-3.367
20.656,-8.528,25.996,-3.434,-2.244,-0.501
23.225,1.1,32.191,-5.87,-1.567,2.198
21.207,12.033,29.122,-7.204,-0.385,3.883
21.54,18.926,22.959,-6.427,0.287,4.271
21.463,21.541,13.744,-4.191,1.339,3.484
20.455,16.967,7.921,-1.705,1.149,1.837
16.848,7.232,2.203,0.504,0.022,0.861
15.92,-1.319,2.804,1.979,-1.571,0.838
12.149,-5.333,5.722,2.388,-2.951,1.413
7.283,-6.62,7.195,2.236,-3.869,1.972
2.626,-5.014,5.131,1.942,-4.332,1.785
0.415,-4.508,3.146,1.997,-3.772,0.832
1.122,-4.277,1.025,2.379,-2.726,-0.585
3.731,-4.725,0.204,2.83,-1.977,-2.19
8.251,-5.718,0.188,3.129,-1.433,-3.818
13.931,-8.825,2.527,2.902,-2.424,-4.997
18.573,-12.121,6.651,1.827,-3.864,-4.984
23.554,-12.548,13.46,-0.146,-3.613,-3.113
27.704,-10.184,20.055,-2.711,-3.461,-0.273
31.404,-3.601,26.169,-5.201,-2.868,2.89
31.447,10.247,24.675,-6.865,-2.167,4.977
25.807,21.66,19.792,-6.395,-1.468,5.538
19.825,25.678,11.872,-4.834,-0.9,4.068
17.18,24.629,5.174,-2.286,0.46,1.761
13.491,17.249,0.192,0.259,-0.016,0.146
9.641,5.069,0.504,2.513,0.773,-0.066
11.467,-3.591,1.963,3.23,1.29,0.626
10.65,-7.386,3.784,3.535,-0.422,1.699
5.524,-8.394,3.491,3.271,-2.613,2.571
-0.039,-7.873,1.914,2.981,-2.659,2.475
-1.927,-7.902,0.29,2.358,-1.978,1.557
-1.858,-8.184,-0.936,1.776,-1.003,0.005
0.357,-7.741,-1.457,1.364,0.257,-1.613
4.039,-8.651,-1.016,1.054,1.203,-3.037
8.299,-9.316,0.251,0.719,1.19,-4.455
11.74,-11.398,5.366,0.433,-0.108,-5.259
14.38,-11.769,12.972,-0.774,-0.976,-4.779
16.371,-11.222,22.601,-2.71,-1.824,-3.01
18.272,-6.267,30.717,-4.684,-1.617,-0.211
19.428,4.372,34.833,-6.605,-1.089,1.833
21.063,15.663,30.366,-7.621,0.148,3.515
21.439,21.521,21.753,-6.525,0.406,4.113
20.175,23.007,10.957,-4.119,0.934,3.312
19.222,18.597,3.605,-1.28,0.727,1.823
17.712,9.101,-0.153,1.349,-0.629,1.561
14.358,1.047,1.651,3.239,-2.329,1.475
10.297,-3.366,4.88,3.854,-3.745,1.441
6.607,-5.906,7.22,3.725,-4.825,1.493
2.545,-6.096,6.253,3.042,-5.211,1.287
0.211,-6.372,4.078,2.494,-4.281,0.599
0.267,-6.683,1.389,2.133,-2.959,-0.424
2.581,-6.972,-0.112,2.105,-1.89,-1.534
5.551,-6.874,-0.967,2.214,-1.18,-2.712
8.784,-7.372,0.611,2.477,-0.899,-4.085
12.026,-7.959,4.741,2.542,-0.919,-5.207
13.983,-11.821,11.836,1.594,-1.172,-5.633
16.765,-12.409,20.712,-0.606,-1.845,-4.969
18.963,-9.359,31.763,-2.992,-2.815,-2.572
24.187,-1.889,43.163,-5.411,-2.671,0.556
29.816,10.506,50.282,-7.557,-3.076,3.702
29.051,24.114,46.804,-8.767,-2.208,6.188
27.873,31.653,36.847,-7.509,-1.409,7.11
24.983,32.439,23.169,-5.097,-0.175,5.882
20.802,27.099,9.033,-2.139,0.526,4.107
15.456,15.357,-0.992,0.897,0.691,2.234
15.929,5.494,-1.798,3.818,-1.033,0.787
13.284,-1.882,1.408,5.105,-2.137,0.153
12.166,-5.886,5.735,5.133,-3.027,0.193
8.41,-7.477,7.856,4.415,-4.66,0.189
4.581,-6.766,7.467,3.562,-4.769,0.074
2.239,-6.436,5.454,2.926,-3.649,-0.547
4.112,-5.458,3.582,2.929,-2.345,-1.427
6.807,-4.978,2.484,3.298,-2.091,-2.503
9.808,-5.769,2.891,3.872,-1.273,-3.683
13.821,-9.794,6.299,3.992,-1.015,-4.608
17.005,-13.164,11.575,2.558,-1.575,-4.857
17.195,-14.6,18.679,0.015,-3.106,-4.067
17.858,-12.96,26.162,-2.779,-3.155,-2.074
21.726,-6.243,35.418,-5.58,-3.174,0.885
22.737,3.322,39.291,-7.883,-2.509,3.642
21.242,14.747,36.829,-8.416,-1.749,5.095
22.639,22.96,27.968,-7.658,0.038,5.344
21.188,24.439,17.17,-6.267,0.4,4.302
13.933,20.899,4.426,-4.334,1.092,1.973
11.572,16.126,-3.447,-1.72,2.484,-0.267
15.969,7.051,-4.883,0.57,2.656,-1.242
15.52,-0.946,-3.016,2.028,1.402,-1.164
14.997,-4.155,0.151,2.788,1.127,-0.361
16.635,-5.599,2.488,3.044,0.583,1.216
15.326,-5.474,3.015,2.578,-1.475,2.837
8.871,-3.416,1.845,2.164,-2.407,3.771
4.696,-1.781,1.409,1.985,-1.761,3.568
4.093,-1.626,0.387,1.948,-1.152,2.311
5.498,-1.944,-0.186,2.1,-1.362,0.272
7.904,-3.642,0.866,2.421,-1.536,-2.253
11.912,-7.478,3.186,2.571,-1.636,-4.555
16.437,-15.192,9.096,1.857,-2.011,-5.684
23.077,-18.262,20.5,-0.198,-3.493,-4.457
27.573,-14.39,30.822,-2.551,-3.862,-1.666
34.345,-7.621,38.802,-5.021,-3.271,1.645
32.96,4.526,39.527,-7.066,-2.58,4.479
33.127,18.931,32.844,-7.257,-1.315,6.107
28.353,25.613,19.046,-5.427,0.548,5.609
23.963,23.149,6.081,-3.045,1.496,3.767
17.192,16.669,-3.214,-0.392,1.325,1.935
16.287,6.958,-5.324,1.982,0.243,0.947
12.729,-0.631,-2.542,3.355,-1.376,0.591
9.249,-4.553,1.815,3.795,-2.866,0.47
5.735,-5.651,4.991,3.723,-3.441,0.52
2.126,-4.605,5.172,3.408,-3.382,0.361
0.465,-3.682,4.0,3.085,-2.46,-0.32
1.549,-4.176,2.546,3.237,-0.861,-1.798
7.608,-3.471,3.431,3.675,-0.064,-3.136
14.033,-5.508,5.013,3.827,0.088,-4.303
20.543,-10.684,9.379,3.425,-0.797,-5.089
24.026,-18.162,17.301,1.776,-1.93,-4.458
26.192,-17.836,28.888,-0.959,-4.004,-1.583
28.249,-13.625,39.421,-3.743,-2.681,1.336
28.321,0.162,43.215,-6.205,-2.362,3.147
26.51,12.6,38.886,-7.426,-0.937,4.791
26.202,23.483,28.721,-6.405,0.472,5.058
24.929,25.61,15.36,-4.067,2.499,3.601
20.256,20.213,3.195,-1.441,1.572,2.356
15.563,7.535,-0.963,1.126,0.325,2.256
11.407,-0.209,0.413,2.929,-1.301,1.888
7.803,-4.147,3.88,3.508,-2.439,1.492
5.253,-6.036,5.86,3.509,-3.582,1.07
3.084,-5.582,5.818,3.251,-4.429,0.391
2.611,-5.283,4.251,3.102,-3.682,-0.492
4.322,-4.597,1.772,3.239,-2.742,-1.392
7.67,-3.73,0.62,3.722,-2.355,-2.665
10.112,-3.084,1.716,4.303,-1.865,-4.254
14.992,-2.853,11.528,4.388,-1.063,-5.821
20.764,-9.773,24.582,1.993,-1.411,-6.024
23.811,-5.549,41.1,-0.661,-3.002,-3.624
30.124,2.469,55.447,-3.442,-1.782,-0.583
30.133,13.797,57.248,-6.362,-0.864,1.842
30.122,21.303,45.634,-7.569,-0.385,3.846
27.658,31.114,30.233,-5.488,0.138,4.529
25.022,26.023,14.605,-2.999,1.995,2.566
18.796,15.823,2.145,-0.454,0.934,1.0
17.596,3.373,1.277,1.905,-1.05,0.564
12.112,-4.764,5.233,2.845,-2.871,0.538
8.022,-7.967,9.237,2.935,-3.388,0.492
5.711,-8.12,10.238,2.564,-4.191,0.545
2.602,-6.769,8.49,2.219,-4.684,-0.083
1.561,-6.354,5.582,2.164,-3.675,-1.173
4.898,-4.555,2.34,2.716,-2.201,-2.377
8.7,-4.297,1.518,3.055,-2.416,-3.8
11.481,-4.137,1.92,3.367,-1.717,-5.354
17.372,-7.008,10.346,3.177,-0.728,-6.364
24.947,-10.825,23.128,0.872,-2.278,-5.882
29.572,-6.865,39.32,-1.865,-4.164,-3.163
38.335,5.498,53.862,-4.398,-4.047,-0.043
33.963,16.677,56.696,-6.743,-2.748,3.202
34.647,27.839,45.786,-7.087,-2.214,4.878
29.85,35.022,30.929,-4.674,-0.513,4.776
27.556,31.406,15.621,-1.741,1.487,2.828
18.917,18.452,2.797,1.128,2.014,1.219
22.453,6.791,1.038,3.571,-0.145,0.379
16.242,-1.167,5.597,4.417,-1.931,0.875
12.402,-3.89,9.017,4.406,-3.034,1.747
6.098,-5.156,9.672,3.848,-4.458,1.883
1.694,-4.503,7.623,3.267,-4.733,1.214
0.329,-3.282,4.987,3.189,-3.443,-0.3
2.816,-2.83,2.485,3.433,-2.238,-2.019
6.678,-3.411,2.115,3.625,-1.516,-3.823
12.677,-4.176,3.231,3.794,-0.448,-4.931
18.071,-7.761,10.44,2.96,-0.635,-5.201
24.886,-11.83,18.344,0.852,-1.025,-4.724
24.613,-11.21,33.577,-1.904,-2.889,-2.087
29.536,-4.743,48.55,-4.499,-2.124,1.035
30.328,9.029,56.414,-7.043,-1.589,3.208
30.093,22.295,50.433,-8.497,0.055,4.644
26.448,32.347,41.042,-7.265,0.342,5.17
27.43,34.545,24.299,-4.857,2.871,3.358
23.503,29.705,8.96,-2.085,2.583,1.229
21.101,16.712,0.808,0.812,2.021,0.066
19.951,7.024,1.568,3.618,0.484,-0.187
17.736,0.864,5.395,4.771,-0.774,0.349
14.474,-2.237,8.929,5.093,-2.6,1.163
8.838,-3.915,10.766,5.017,-3.637,1.833
4.127,-4.388,9.563,4.619,-3.65,1.983
1.145,-4.373,7.094,4.356,-3.019,1.361
1.721,-4.74,4.743,4.328,-1.246,0.151
6.039,-4.032,3.64,4.516,-0.729,-0.973
10.532,-4.512,2.669,4.632,-0.636,-2.167
15.35,-6.009,4.344,4.727,-0.714,-3.164
17.323,-10.278,10.212,3.992,-1.848,-3.821
22.725,-11.186,21.977,1.679,-4.336,-3.333
23.0,-10.233,33.363,-1.238,-4.508,-1.096
28.71,-0.547,45.899,-4.051,-4.489,1.557
29.021,13.075,50.938,-6.644,-3.376,3.988
29.121,26.182,45.207,-7.735,-1.9,5.47
24.081,32.212,30.323,-5.991,0.094,5.251
24.343,33.556,16.425,-3.301,1.882,3.158
20.187,25.363,3.475,-0.579,2.78,0.96
20.081,12.926,-1.273,2.111,1.616,-0.274
19.811,3.89,0.761,3.904,0.503,-0.223
17.821,-0.533,5.515,4.229,-0.809,0.714
12.284,-3.155,8.365,4.088,-2.805,1.471
6.792,-3.354,8.004,3.923,-3.905,1.784
2.081,-2.93,5.381,3.735,-3.617,0.88
1.652,-1.041,2.611,3.894,-2.326,-0.765
5.388,0.105,1.987,4.317,-1.49,-2.629
10.442,-0.107,1.705,4.583,-0.489,-4.333
17.499,-3.37,6.715,4.472,0.4,-5.265
23.277,-7.596,15.164,3.016,0.236,-5.303
24.764,-10.448,29.06,0.348,-2.074,-3.567
28.535,-2.973,43.844,-2.531,-2.714,-0.666
32.621,8.915,56.234,-5.346,-2.526,2.374
29.065,23.514,54.564,-7.791,-1.83,4.486
28.817,35.946,43.376,-7.541,-1.51,5.758
27.114,40.593,27.135,-5.353,0.053,4.65
21.912,33.697,10.724,-2.427,1.536,2.306
18.605,21.25,-0.184,0.587,1.401,0.111
19.238,7.876,-0.912,3.287,0.01,-0.577
15.403,-0.403,3.928,4.554,-0.685,-0.416
14.343,-3.795,7.899,4.829,-1.043,0.7
11.198,-5.962,9.537,4.428,-2.617,1.778
4.84,-5.856,7.952,3.886,-3.322,2.315
1.069,-4.255,4.873,3.667,-2.651,1.822
0.11,-3.849,2.69,3.515,-2.076,0.833
1.407,-3.699,2.008,3.656,-0.703,-0.241
5.96,-3.74,3.044,3.876,-0.332,-1.095
9.158,-3.759,3.855,4.291,-0.571,-1.924
12.244,-4.816,7.36,4.527,-0.61,-2.758
16.316,-10.183,14.941,3.829,-0.891,-3.462
16.498,-14.349,25.611,1.225,-3.469,-3.337
16.352,-12.086,36.001,-1.521,-4.612,-1.279
22.359,-3.365,46.157,-4.407,-4.179,1.208
22.869,6.986,46.989,-7.125,-4.414,3.327
21.06,19.252,38.692,-7.919,-3.56,5.019
22.288,27.368,25.696,-5.913,-1.411,5.201
20.473,27.453,11.615,-3.183,0.741,3.042
16.906,18.129,1.952,0.022,2.05,1.229
16.901,7.604,0.408,2.911,1.682,0.785
15.453,0.607,3.876,4.768,-0.404,0.842
11.884,-3.402,8.299,5.399,-2.157,1.28
9.099,-6.025,12.299,5.203,-3.259,1.986
4.104,-5.65,11.679,4.243,-4.406,1.987
1.102,-4.173,8.512,3.593,-3.48,0.921
2.378,-3.619,5.926,3.519,-1.757,-0.314
5.643,-4.026,4.934,3.564,-0.954,-1.564
8.824,-4.429,4.572,3.497,-1.002,-2.798
12.47,-6.105,6.904,3.503,-0.826,-3.647
16.038,-12.291,13.627,2.471,-1.075,-3.788
17.594,-16.235,21.956,-0.231,-1.95,-3.127
19.844,-13.924,33.417,-2.912,-2.232,-1.008
24.769,-6.512,44.292,-5.381,-2.603,1.668
22.393,6.03,46.277,-7.632,-2.654,3.893
20.05,19.616,40.259,-7.968,-2.306,4.92
18.322,27.887,30.637,-5.766,-1.095,4.791
17.585,28.454,16.952,-2.964,0.501,3.292
13.711,22.447,4.539,-0.134,1.61,1.287
16.023,11.424,0.036,2.843,1.784,-0.016
17.133,2.319,1.758,4.767,1.103,-0.198
16.485,-3.378,4.612,5.267,-0.137,0.325
12.542,-6.453,6.945,5.091,-1.716,1.069
8.088,-7.838,7.735,4.857,-2.842,1.616
3.838,-8.07,7.173,4.327,-3.654,1.413
0.829,-6.826,5.166,3.922,-3.056,0.479
0.791,-5.266,3.384,3.765,-2.027,-0.872
3.006,-4.037,2.669,3.7,-1.201,-2.278
7.315,-3.808,3.099,3.563,-0.228,-3.436
13.572,-5.312,5.587,3.341,0.028,-4.242
18.559,-8.379,11.762,2.33,-1.065,-4.208
23.014,-9.328,20.466,0.131,-1.808,-2.707
25.234,-7.451,30.699,-2.431,-2.558,-0.073
31.808,-0.006,40.593,-4.889,-2.886,2.615
28.04,15.669,40.364,-7.115,-3.181,4.883
21.551,25.768,32.124,-7.108,-2.36,5.978
16.569,30.673,22.911,-5.069,-1.648,4.949
15.85,29.849,11.465,-2.466,-0.179,2.839
9.228,22.153,0.14,0.293,0.664,0.756
10.553,7.303,-1.3,3.15,1.282,-0.268
12.933,-0.725,2.906,4.518,0.838,-0.45
11.915,-6.266,4.746,4.718,-0.124,0.049
7.377,-8.027,6.127,4.714,-1.847,0.142
3.539,-7.696,6.547,4.651,-2.211,-0.153
2.079,-5.884,6.192,4.647,-1.356,-1.054
5.398,-4.137,5.208,4.747,-0.923,-1.978
9.492,-3.521,6.119,4.893,-0.67,-2.75
13.762,-5.41,7.814,4.669,0.74,-2.995
17.712,-9.009,14.243,3.894,0.231,-2.702
17.925,-13.4,23.677,1.781,-1.546,-2.181
17.215,-11.352,37.873,-1.072,-2.778,-0.882
21.201,-3.071,50.253,-3.802,-4.169,1.461
22.117,13.038,56.727,-6.177,-5.572,3.722
20.797,27.612,50.378,-7.36,-4.413,5.591
20.723,38.501,37.775,-5.946,-3.322,6.311
19.183,38.249,20.033,-3.49,-1.297,5.373
15.937,30.288,6.07,-0.674,1.084,3.486
14.232,15.086,-1.383,2.218,1.502,2.197
13.006,4.513,0.395,4.495,-0.267,1.468
10.7,-2.627,4.797,5.257,-1.657,1.121
8.228,-6.294,8.438,5.524,-2.703,1.158
3.637,-7.95,8.729,5.162,-3.731,1.063
0.977,-8.077,7.698,4.664,-3.103,0.233
1.411,-8.048,6.756,4.08,-1.808,-0.897
4.66,-7.882,5.702,3.502,-1.04,-1.638
8.093,-6.517,5.805,3.188,-1.265,-2.086
11.023,-6.745,8.115,3.145,-1.93,-2.674
11.79,-12.616,14.351,2.388,-1.569,-3.291
15.049,-14.833,26.959,0.171,-2.221,-3.307
17.193,-8.89,40.308,-2.168,-2.993,-1.248
25.634,0.755,53.721,-4.576,-4.121,1.122
24.872,16.866,58.084,-6.987,-3.159,3.692
26.46,32.874,50.556,-7.582,-3.083,5.878
22.738,40.794,33.108,-5.32,-2.907,6.327
19.573,37.449,15.916,-2.618,-0.534,4.287
13.806,28.502,1.858,0.304,1.813,2.175
14.377,13.387,-4.092,3.087,1.37,0.535
12.993,3.41,-1.618,4.914,0.322,-0.204
11.956,-2.951,3.215,5.301,-0.471,0.152
9.59,-6.263,7.181,5.307,-2.245,0.639
3.41,-7.818,7.239,4.938,-3.344,0.619
0.34,-8.013,6.032,4.635,-2.562,-0.113
-0.492,-7.588,4.287,4.366,-1.509,-1.559
2.643,-5.511,3.891,4.324,-0.391,-3.094
7.803,-4.602,4.356,4.212,0.465,-4.083
16.072,-5.461,8.869,4.06,0.981,-4.177
19.459,-10.792,16.697,3.035,-1.012,-3.744
25.165,-11.913,30.228,0.749,-2.142,-2.156
28.552,-6.312,44.401,-2.072,-4.025,0.664
34.892,3.399,53.31,-4.669,-5.144,3.399
29.611,17.736,52.145,-7.07,-4.955,5.625
29.983,33.267,42.256,-7.451,-2.971,6.795
23.284,40.299,24.203,-5.489,-2.386,5.816
18.89,36.466,6.249,-2.856,0.556,3.432
14.354,27.645,-3.89,0.128,2.292,1.262
15.554,13.945,-6.031,2.844,1.638,-0.174
13.141,4.581,-2.493,4.406,0.546,-0.589
13.189,-1.07,3.249,4.704,-0.478,-0.034
10.39,-4.718,6.509,4.584,-2.096,0.309
4.031,-6.192,5.702,4.189,-2.769,0.139
1.067,-5.539,4.218,4.23,-1.989,-0.74
0.656,-5.714,2.928,4.348,-0.964,-2.18
4.283,-4.818,1.68,4.68,0.322,-3.315
10.807,-5.925,3.814,4.648,0.879,-4.171
16.993,-7.034,8.875,4.299,1.556,-4.462
22.284,-10.138,20.731,2.823,-0.522,-4.024
26.077,-10.351,34.065,0.07,-2.44,-1.976
28.662,-4.114,49.621,-2.836,-4.407,0.731
28.802,7.921,57.236,-5.318,-5.146,3.627
23.901,19.815,54.91,-7.042,-5.417,6.004
21.58,30.984,40.111,-6.451,-3.365,6.499
19.807,35.669,23.182,-4.0,-0.965,4.908
19.138,30.62,6.466,-1.181,1.381,2.64
17.587,20.195,-2.563,1.571,1.706,0.799
18.911,10.061,-3.517,3.767,0.716,-0.255
16.66,2.534,0.556,4.627,-0.45,0.026
13.516,-1.621,5.329,4.978,-2.05,0.849
7.349,-3.64,7.279,4.872,-3.099,1.283
2.399,-4.311,6.59,4.772,-2.833,0.869
0.542,-4.752,4.999,4.78,-1.692,-0.403
1.797,-4.793,4.099,5.027,-0.583,-1.965
6.072,-5.042,3.253,5.07,-0.246,-3.399
11.496,-4.977,3.364,5.065,0.14,-4.205
17.093,-6.193,5.075,4.874,-0.279,-4.375
19.222,-8.421,8.628,4.361,-1.79,-4.415
22.735,-6.412,16.401,3.038,-2.622,-4.292
23.008,-1.202,24.891,0.888,-3.758,-1.988
23.715,5.792,33.792,-1.821,-3.656,0.653
23.311,19.288,42.611,-4.28,-3.969,3.078
22.321,33.472,43.556,-6.486,-2.324,5.156
20.237,41.163,33.459,-7.44,-1.569,6.534
17.324,40.591,20.624,-6.07,0.115,5.295
15.335,36.422,9.068,-3.434,0.9,3.301
15.423,25.369,-1.028,-0.746,1.874,1.362
17.531,13.54,-3.457,1.813,0.986,0.47
15.644,3.013,0.381,3.465,0.306,0.677
15.036,-1.2,5.016,3.744,-0.618,1.545
11.415,-3.936,7.893,3.559,-2.646,2.281
5.881,-5.224,7.263,3.17,-3.633,2.336
1.908,-4.987,4.539,2.914,-3.312,1.536
1.557,-3.422,1.343,3.094,-2.814,0.14
1.965,-3.145,0.626,3.399,-2.204,-1.709
5.336,-2.81,0.117,3.718,-1.095,-3.672
10.588,-2.116,0.939,4.075,0.094,-4.831
16.006,-3.478,4.213,4.353,-0.685,-5.382
19.671,-5.388,12.263,3.694,-1.16,-5.646
23.539,-4.208,25.77,1.709,-2.529,-4.028
26.658,2.914,39.286,-1.062,-3.13,-0.806
28.986,18.005,50.73,-3.717,-5.109,2.237
22.132,30.119,52.915,-6.297,-3.499,5.022
20.683,40.205,45.315,-7.628,-2.871,6.399
17.107,42.372,28.644,-6.411,-1.317,5.756
14.593,37.431,13.12,-3.849,0.311,3.834
13.185,21.538,1.577,-1.384,2.072,2.187
18.078,10.386,-1.702,0.971,0.633,1.135
16.129,1.694,0.299,2.769,-0.504,1.513
15.042,-1.248,4.441,3.317,-1.737,2.125
11.087,-2.969,6.483,3.252,-3.881,2.45
4.514,-2.15,5.423,3.167,-4.656,2.015
1.763,-1.985,4.048,3.296,-3.829,0.838
2.385,-3.731,3.98,3.499,-2.508,-0.331
5.332,-5.288,3.036,3.439,-1.995,-1.247
8.39,-7.388,2.532,3.425,-1.301,-1.722
12.375,-10.3,3.095,3.383,-1.571,-1.861
13.17,-13.911,4.912,3.271,-2.939,-2.001
12.335,-17.337,11.385,2.302,-4.086,-2.494
13.928,-16.824,25.244,0.377,-1.713,-2.019
17.235,-5.581,40.658,-2.106,-2.362,-1.106
19.524,12.558,50.095,-4.443,-2.321,0.78
19.5,28.955,51.252,-6.815,-1.404,2.555
18.641,41.693,42.911,-7.324,-0.556,4.279
15.22,46.067,25.845,-5.884,-1.58,4.381
13.18,38.95,8.542,-3.507,0.137,3.664
13.465,23.96,-1.205,-0.84,1.296,2.464
15.885,11.828,-3.337,1.787,0.781,2.126
16.558,4.852,-1.107,3.421,-0.519,2.006
14.911,1.407,3.851,4.221,-2.425,2.003
10.531,-1.261,6.56,4.388,-3.666,1.979
5.244,-1.597,7.258,4.202,-4.437,1.269
2.677,-2.376,7.138,4.252,-3.861,-0.35
3.939,-3.446,6.358,4.315,-2.733,-2.024
8.685,-5.147,5.718,4.497,-1.263,-2.934
13.496,-7.412,7.69,4.732,-0.652,-2.961
15.766,-11.902,11.87,4.695,-0.746,-2.19
15.32,-17.335,20.433,3.275,-2.041,-0.869
18.751,-16.088,35.099,0.509,-2.712,1.202
26.772,-5.518,46.588,-2.358,-2.785,3.56
33.114,10.842,50.595,-5.137,-2.733,5.486
35.589,24.235,45.812,-6.785,-1.548,6.961
37.548,36.162,34.007,-6.102,-0.334,7.214
32.861,38.134,15.2,-3.837,1.205,6.078
24.699,30.153,0.549,-1.43,1.889,4.038
18.977,17.303,-6.288,1.091,1.612,2.139
17.155,9.091,-5.593,2.97,0.181,0.469
16.393,2.627,-1.099,3.851,-0.741,-0.041
15.044,-0.806,4.116,4.279,-2.705,-0.112
10.125,-3.123,6.627,4.371,-4.142,-0.15
4.931,-4.871,7.089,4.274,-4.366,-0.649
1.708,-5.889,6.399,3.988,-3.783,-1.759
1.159,-4.969,3.914,3.776,-2.363,-3.294
5.477,-3.72,3.336,3.96,-0.711,-4.282
10.717,-2.951,3.465,4.308,0.38,-4.669
15.726,-4.636,6.7,4.661,1.116,-4.37
18.304,-9.48,13.16,4.167,0.961,-3.654
19.032,-13.569,24.302,2.207,-0.412,-2.514
16.812,-12.238,36.846,-0.669,-2.087,-0.671
19.87,-4.24,50.504,-3.517,-3.428,1.795
22.324,10.55,54.818,-6.294,-4.359,3.894
24.324,26.639,47.781,-7.697,-4.096,5.554
23.328,37.223,35.318,-6.457,-4.246,6.11
19.327,36.809,17.08,-4.357,-2.64,4.895
14.425,29.961,-0.119,-1.764,-0.41,2.594
12.092,16.021,-7.704,0.927,0.754,0.488
10.88,4.997,-6.222,3.032,0.4,-0.725
11.11,-2.466,-2.979,3.642,0.837,-0.896
13.09,-4.547,2.551,4.003,-0.261,-0.509
9.948,-5.987,5.905,3.84,-2.304,-0.211
4.556,-4.785,5.731,3.606,-3.293,-0.525
1.393,-4.116,4.284,3.661,-2.672,-1.519
1.9,-2.768,3.287,4.05,-1.844,-2.79
5.517,-1.395,3.573,4.598,-1.149,-3.936
11.096,-0.637,4.963,5.073,0.112,-4.662
17.508,-1.727,9.489,5.033,0.598,-4.777
21.692,-6.301,17.197,3.761,-0.68,-4.377
22.885,-11.135,27.869,1.1,-2.039,-3.081
22.866,-9.815,41.532,-1.909,-3.491,-0.459
22.23,0.613,54.391,-4.815,-4.138,2.161
20.357,14.984,56.979,-7.231,-4.084,3.876
18.714,28.011,49.895,-8.296,-2.451,4.92
19.017,37.714,34.681,-6.755,-1.406,4.603
17.86,38.714,16.165,-4.339,0.532,2.676
18.409,29.062,1.079,-1.506,1.179,0.764
19.243,15.931,-4.385,1.164,0.753,-0.038
19.251,6.951,-1.882,3.346,-0.469,0.127
16.546,1.29,4.052,3.99,-1.125,0.966
13.66,-1.92,9.009,3.995,-2.366,1.864
8.088,-2.744,9.804,3.508,-3.737,2.108
2.646,-2.544,7.877,3.189,-3.759,1.44
0.537,-1.767,4.938,3.377,-2.546,-0.049
1.658,-1.111,4.226,3.861,-1.536,-1.848
5.669,-1.09,4.423,4.233,-1.057,-3.457
10.257,-1.846,5.414,4.328,-0.114,-4.59
15.468,-4.289,9.387,3.903,0.367,-4.939
19.624,-8.67,15.003,2.239,-0.927,-4.654
22.092,-10.234,21.271,-0.423,-2.086,-3.45
22.409,-8.001,29.697,-3.197,-3.061,-1.291
24.107,-2.026,39.868,-5.638,-3.265,1.619
25.121,8.693,45.782,-7.563,-3.098,4.258
22.633,23.781,44.172,-8.585,-1.785,5.452
22.407,32.993,34.814,-8.005,-0.527,5.576
20.842,34.645,21.043,-6.059,0.97,4.411
18.88,31.51,7.173,-3.524,1.86,2.424
17.969,23.009,-1.558,-0.774,1.761,0.674
18.524,10.566,-3.875,1.761,0.671,0.424
15.574,1.701,-1.05,3.355,-0.141,0.806
13.243,-2.612,2.914,3.717,-0.917,1.504
8.904,-5.183,4.891,3.443,-2.214,2.001
3.663,-5.151,3.292,2.92,-2.79,1.913
0.429,-4.004,1.312,2.728,-2.069,0.999
0.463,-2.881,0.716,3.031,-0.558,-0.357
3.355,-1.545,2.159,3.71,-0.295,-1.599
6.425,-0.774,3.911,4.057,-0.716,-2.803
10.771,0.543,5.835,4.368,-0.129,-3.384
15.608,0.334,8.172,4.273,-0.23,-3.488
19.189,-1.711,11.965,3.564,-1.382,-3.278
20.766,-5.338,19.164,1.793,-1.879,-2.951
21.278,-7.584,31.697,-0.815,-2.508,-1.421
24.284,-2.484,45.693,-3.354,-3.199,0.998
30.061,9.113,59.274,-5.601,-3.082,3.278
30.988,22.93,63.951,-7.605,-1.963,5.151
32.277,34.295,55.316,-8.354,-0.162,6.155
33.771,40.455,37.984,-6.541,1.604,5.74
30.435,37.017,19.692,-4.015,2.848,3.858
25.16,26.038,4.235,-1.247,2.581,1.938
22.668,13.547,-2.837,1.462,0.985,0.552
19.21,4.376,-1.061,3.636,-0.663,0.319
15.181,-0.324,3.598,4.365,-1.699,0.666
11.358,-3.694,7.473,4.45,-3.233,1.24
5.782,-5.987,8.548,4.094,-3.927,1.828
1.866,-6.309,6.885,3.595,-4.007,1.941
-1.381,-6.721,3.977,3.052,-3.659,1.297
-1.882,-7.1,1.061,2.692,-2.484,0.108
0.962,-6.292,-0.658,2.584,-1.458,-1.433
5.267,-4.748,-1.225,2.785,-1.149,-3.312
10.005,-6.373,2.524,3.193,-0.684,-5.22
15.602,-10.516,13.165,2.784,-0.543,-6.528
20.209,-11.138,29.019,0.602,-2.475,-5.351
24.496,-0.671,45.155,-1.9,-3.375,-2.502
34.909,13.626,57.839,-4.513,-3.206,0.709
33.006,28.772,55.164,-7.131,-2.306,3.831
31.209,40.326,42.718,-7.074,-1.67,5.566
29.422,43.637,23.886,-4.747,0.532,4.585
27.769,33.172,7.074,-2.236,1.492,2.337
18.044,18.264,-5.382,0.224,1.559,0.408
18.758,4.645,-4.778,2.593,-0.004,-0.721
16.667,-1.745,-0.746,3.362,-1.708,-0.6
13.628,-3.928,5.075,3.674,-3.476,-0.049
7.822,-4.796,7.515,3.756,-4.659,0.157
3.466,-4.45,7.366,3.695,-4.995,-0.15
1.014,-5.143,5.425,3.68,-3.971,-1.118
2.449,-5.814,2.645,3.747,-2.213,-2.252
6.723,-6.98,1.152,3.737,-1.227,-3.495
11.931,-8.295,-0.435,3.839,-0.864,-4.566
17.231,-12.78,4.428,4.431,-1.169,-5.193
25.182,-15.593,17.467,3.313,-1.519,-4.32
29.949,-6.766,34.272,0.713,-3.045,-1.776
38.598,8.227,47.888,-1.916,-3.567,1.141
40.701,23.44,54.668,-4.611,-2.379,4.254
40.276,38.841,48.109,-6.922,-1.311,6.772
33.97,48.539,31.461,-6.073,-1.227,7.063
29.03,42.579,11.777,-3.619,0.454,5.122
20.885,28.953,-1.859,-0.813,1.642,3.01
18.724,15.458,-6.771,1.914,0.193,1.321
15.761,5.062,-3.802,3.867,-1.167,0.206
13.836,-1.003,1.769,4.349,-2.023,-0.147
11.04,-4.241,6.746,4.336,-3.376,-0.062
6.189,-4.838,7.401,3.916,-4.222,-0.078
1.995,-5.344,6.481,3.556,-3.706,-0.92
1.341,-5.468,4.249,3.408,-2.434,-2.282
5.804,-4.363,2.277,3.732,-1.3,-3.491
11.819,-3.285,3.549,4.234,-0.869,-4.624
20.309,-6.464,6.803,4.937,-0.378,-5.042
23.049,-16.061,18.63,4.031,-1.488,-4.389
29.521,-15.338,34.458,1.545,-1.773,-2.143
31.314,-4.573,50.328,-1.345,-2.447,0.722
38.863,10.658,60.523,-4.289,-1.789,3.601
35.774,27.605,58.05,-7.378,-0.908,5.682
36.303,46.121,42.119,-7.013,0.226,6.338
30.343,48.361,23.163,-4.284,1.272,4.88
30.045,36.961,8.19,-1.324,2.059,2.894
20.924,20.781,-2.039,1.449,1.285,1.203
17.81,6.33,-0.539,3.954,-0.764,0.315
14.459,-1.932,4.676,4.6,-1.761,0.212
12.153,-4.781,9.262,4.423,-3.625,0.575
5.559,-5.354,9.299,4.001,-4.302,0.488
2.001,-5.027,7.365,3.769,-4.202,-0.088
0.971,-4.467,4.589,3.981,-2.481,-1.349
5.586,-5.193,4.231,4.231,-1.332,-2.616
10.714,-6.633,3.726,4.352,-0.587,-3.715
17.283,-9.264,4.782,4.427,-0.906,-4.21
20.11,-16.771,10.277,4.132,-2.206,-3.91
27.975,-18.776,24.698,2.017,-4.104,-2.266
31.499,-12.304,38.957,-0.705,-2.847,0.325
39.332,4.711,53.832,-3.377,-2.457,3.095
40.589,22.414,57.547,-5.99,-0.676,5.502
43.008,40.853,49.441,-7.284,0.262,6.767
33.65,47.069,31.604,-5.366,1.987,5.826
31.245,43.044,16.071,-2.412,1.898,3.856
22.895,26.835,2.816,0.312,1.052,1.812
18.093,11.706,-0.313,2.958,-0.628,0.503
13.694,1.172,4.0,4.617,-1.175,-0.031
14.337,-2.606,9.073,4.829,-2.854,0.289
8.162,-4.744,10.441,4.546,-4.747,0.275
4.575,-4.524,8.761,4.456,-4.353,0.052
3.854,-4.556,7.143,4.551,-3.412,-0.922
6.681,-4.668,7.013,4.789,-2.522,-2.117
10.426,-4.225,6.408,4.976,-1.659,-3.153
16.271,-5.592,7.292,5.34,-1.129,-3.782
20.018,-16.589,12.234,5.009,-1.823,-4.047
27.68,-20.969,27.146,2.31,-2.985,-3.191
33.192,-13.556,40.979,-0.54,-4.136,-0.654
44.928,0.233,55.341,-3.459,-3.941,1.976
43.358,16.493,57.164,-6.494,-2.657,4.589
44.582,36.338,47.634,-7.243,-1.35,6.18
37.649,43.81,28.08,-4.903,-0.119,5.65
34.311,37.422,12.064,-2.117,1.65,3.578
22.839,22.131,-1.262,0.522,1.092,1.775
21.257,7.789,-3.059,3.087,-0.726,0.376
17.261,-0.592,3.232,4.082,-2.302,-0.073
14.749,-3.153,9.121,4.264,-3.953,0.282
8.124,-4.639,11.237,4.087,-4.992,0.321
4.14,-4.818,10.241,3.93,-4.626,-0.001
2.199,-6.416,8.189,3.817,-4.161,-0.754
2.082,-7.811,5.648,3.772,-2.624,-1.663
5.372,-8.115,3.38,3.93,-1.087,-2.452
10.658,-9.335,2.509,4.268,-0.744,-3.235
14.262,-17.626,8.306,4.281,-1.536,-4.267
20.136,-21.229,23.613,2.473,-2.155,-4.08
24.334,-13.639,39.385,-0.03,-3.878,-1.779
34.975,0.061,55.318,-2.752,-4.058,0.773
35.914,16.185,60.649,-5.699,-2.812,3.45
37.779,34.546,50.72,-6.638,-1.4,5.584
33.899,43.103,31.769,-4.579,0.455,5.56
34.626,37.796,16.342,-1.716,1.683,3.373
24.606,24.641,2.195,1.0,1.011,1.116
23.039,9.588,-1.023,3.661,-0.513,-0.487
19.15,0.547,4.319,4.648,-1.909,-0.943
17.105,-3.593,9.917,4.62,-3.695,-0.468
10.976,-4.944,11.042,4.413,-4.346,0.009
7.229,-5.411,10.423,4.238,-4.735,0.167
2.999,-5.189,7.427,4.037,-4.78,-0.763
2.588,-4.524,4.637,4.308,-3.363,-2.261
6.745,-4.12,3.366,4.634,-1.949,-3.651
12.458,-6.851,3.94,4.843,-1.467,-4.589
16.051,-13.568,8.818,4.652,-1.146,-4.698
21.576,-17.368,21.312,2.884,-1.231,-3.508
27.623,-11.965,36.188,0.071,-1.886,-0.532
37.532,-0.748,48.601,-2.931,-2.52,2.373
35.843,17.044,49.416,-5.796,-1.97,5.021
34.789,32.297,40.957,-6.498,-1.055,6.332
29.982,39.479,24.14,-4.83,0.213,5.696
27.407,35.05,8.54,-2.008,1.358,3.388
17.883,23.807,-3.333,0.658,1.141,1.175
16.755,8.61,-4.187,3.193,0.416,-0.541
15.715,0.095,0.104,4.041,-0.336,-1.129
15.727,-2.894,5.498,4.175,-1.449,-0.483
10.786,-4.165,6.997,3.911,-2.679,0.157
6.074,-3.611,6.105,3.864,-2.605,0.511
3.596,-1.905,5.613,4.049,-2.404,0.091
3.729,-0.096,6.178,4.645,-1.488,-0.817
7.777,0.74,8.089,5.618,-0.74,-1.637
12.767,0.513,10.098,6.434,-0.765,-2.255
18.509,-2.319,12.971,6.786,-0.524,-2.392
23.29,-9.511,21.082,6.207,-1.319,-1.751
24.48,-14.214,32.7,3.39,-2.771,0.117
26.235,-10.385,45.372,-0.078,-2.622,2.408
33.683,0.503,56.876,-3.451,-1.913,4.694
34.014,13.678,58.621,-6.424,-1.072,6.69
34.417,26.548,47.88,-7.308,0.579,7.542
35.047,32.986,31.236,-5.234,2.636,6.708
32.352,29.408,14.38,-2.742,2.543,4.656
23.252,19.108,0.666,-0.027,2.452,2.492
21.933,7.581,-2.101,2.775,1.428,0.557
20.315,-0.169,2.229,4.173,-0.13,-0.254
18.904,-3.264,7.817,4.433,-2.284,-0.079
15.864,-4.238,11.657,4.45,-3.89,0.639
12.402,-4.688,13.26,4.145,-5.307,1.06
7.004,-3.842,11.745,3.699,-5.859,0.895
2.929,-3.019,9.281,3.452,-5.286,-0.059
1.693,-3.093,7.258,3.368,-4.072,-1.621
3.845,-2.17,5.12,3.718,-2.401,-3.078
8.252,-2.158,4.008,4.335,-1.13,-4.058
13.227,-3.612,4.727,4.776,-0.604,-4.735
18.103,-7.85,8.017,4.514,-0.541,-5.046
25.62,-9.331,15.627,2.839,-1.77,-4.49
30.452,-9.269,27.388,0.197,-3.355,-1.973
35.931,1.591,42.226,-2.83,-3.068,0.75
38.902,19.448,52.862,-5.628,-3.019,3.527
36.295,35.029,49.553,-7.774,-1.46,5.881
31.757,41.315,36.111,-6.805,0.134,6.473
27.639,42.048,20.732,-4.543,2.186,4.82
22.898,31.107,5.07,-1.943,2.318,2.893
19.474,14.505,-5.852,0.487,2.306,1.433
20.165,3.254,-4.435,2.856,0.709,0.596
18.153,-1.507,2.501,3.37,-0.571,1.025
15.011,-2.712,7.412,3.248,-2.585,1.454
9.48,-2.445,8.826,3.045,-4.163,1.287
5.178,-1.64,7.955,3.16,-4.165,0.34
3.546,-0.921,7.363,3.643,-3.694,-1.068
4.584,-0.483,6.551,4.323,-3.155,-2.603
7.172,0.569,5.325,5.075,-1.849,-3.885
13.68,1.298,5.634,5.844,-0.273,-4.163
19.278,0.18,7.145,6.247,-0.128,-3.938
23.12,-1.69,11.308,5.804,-0.993,-3.48
25.226,-2.033,19.048,4.534,-2.315,-2.336
26.912,2.641,30.422,1.701,-3.087,0.368
23.791,15.001,43.283,-1.465,-3.294,2.74
21.089,31.917,49.76,-4.414,-3.098,4.91
19.926,44.499,42.905,-6.812,-1.847,6.606
17.348,49.881,29.966,-6.774,0.068,6.798
16.177,45.547,16.52,-4.706,2.067,5.185
18.914,31.745,4.389,-2.462,1.851,3.48
19.331,15.274,-1.503,-0.351,1.42,2.469
17.352,4.591,1.928,1.638,0.26,2.2
15.337,0.051,7.743,2.007,-1.209,2.605
11.732,-0.973,10.368,2.016,-3.846,2.789
5.342,-0.21,8.528,2.121,-4.745,2.228
2.741,0.542,6.002,2.562,-4.052,0.742
4.357,0.706,4.899,3.536,-3.402,-1.023
7.556,0.391,4.088,4.439,-2.888,-2.753
12.068,-0.064,3.983,5.342,-1.647,-3.907
18.419,-0.398,5.543,6.022,-0.757,-4.057
23.412,-1.83,11.597,6.457,-2.467,-3.899
27.45,1.6,17.549,5.261,-3.191,-2.779
27.606,2.555,26.566,2.606,-2.196,-0.084
30.749,16.88,38.665,-0.648,-2.947,2.574
31.544,33.28,45.529,-3.678,-2.962,4.991
28.892,48.563,42.386,-6.664,-1.149,7.342
24.954,55.164,32.8,-7.888,-0.509,8.096
21.829,57.867,18.181,-6.047,-0.996,6.787
15.66,44.342,3.124,-3.367,0.702,4.942
13.926,27.429,-3.446,-0.556,1.496,3.282
14.168,12.384,-4.269,1.842,0.799,2.119
11.677,1.118,0.255,3.544,0.27,1.616
11.032,-3.682,6.119,3.574,-0.51,1.493
9.514,-5.599,8.522,3.309,-2.329,1.474
4.518,-5.657,6.352,2.938,-3.619,0.817
2.831,-4.941,4.295,3.112,-3.364,-0.523
4.895,-3.931,1.475,3.811,-3.125,-1.926
8.63,-3.564,0.869,4.697,-2.63,-3.194
12.925,-3.191,1.004,5.454,-1.14,-3.867
18.389,-4.224,6.18,5.754,-1.717,-3.685
21.656,-6.566,13.336,4.815,-1.292,-2.983
20.391,-7.997,25.462,2.173,-1.263,-1.411
20.766,0.145,39.787,-0.981,-0.374,0.706
23.035,12.238,51.988,-4.154,-1.341,2.662
19.005,25.35,51.293,-6.892,0.219,4.307
19.198,37.235,43.534,-8.15,0.238,5.108
20.365,42.884,28.675,-6.644,0.557,4.678
20.146,36.27,11.142,-4.107,0.198,3.596
17.208,23.709,-0.857,-1.36,0.62,2.326
19.955,11.389,-3.555,1.264,-0.288,1.517
16.421,1.295,-1.056,3.343,-1.836,1.216
13.031,-4.22,3.909,3.891,-2.768,0.938
8.811,-6.759,7.466,3.691,-3.551,0.621
5.017,-6.646,6.86,3.215,-3.865,0.073
2.505,-5.623,4.136,3.051,-3.519,-1.332
4.387,-4.42,1.258,3.465,-2.732,-2.909
8.292,-3.612,0.598,4.314,-1.845,-4.161
13.4,-3.245,0.949,5.147,-1.721,-4.995
17.034,-3.583,6.191,5.707,-2.115,-5.822
25.681,-1.785,16.99,4.717,-1.546,-5.292
27.759,-3.279,28.987,1.963,-2.947,-2.764
31.694,8.66,42.487,-1.254,-3.03,0.145
37.034,23.791,54.418,-4.423,-3.0,2.961
33.931,37.543,54.088,-7.255,-1.515,6.014
27.931,44.395,43.466,-8.121,-1.149,7.073
25.694,48.7,28.491,-6.35,0.515,5.661
21.358,38.343,11.534,-3.827,1.842,3.749
17.012,23.062,0.023,-1.228,2.89,2.176
19.434,9.534,-2.972,1.179,1.893,1.401
17.016,0.645,-0.725,2.878,0.103,1.776
13.703,-2.468,4.658,3.275,-1.304,2.272
9.534,-4.664,7.775,3.024,-3.338,2.305
3.564,-4.404,6.199,2.621,-4.153,1.5
2.737,-3.029,3.754,2.719,-4.001,-0.247
3.745,-1.856,2.026,3.253,-3.585,-2.356
6.61,-1.041,1.6,4.219,-1.827,-4.048
13.312,-1.316,6.117,5.306,-0.169,-4.683
18.454,-5.452,14.425,5.796,-0.676,-4.553
20.567,-8.87,25.362,3.988,-1.187,-3.79
22.319,-5.573,40.973,1.152,-2.29,-1.351
27.503,2.103,55.451,-2.096,-2.669,1.608
26.076,18.679,59.752,-5.456,-3.531,4.121
26.583,32.48,52.028,-7.814,-1.272,6.018
27.424,40.102,36.452,-6.821,-0.736,6.647
25.135,37.367,18.244,-4.319,1.277,5.357
21.322,27.999,3.232,-1.617,1.557,3.55
20.843,10.735,-3.548,0.806,1.34,2.093
17.127,0.804,-2.447,2.594,-0.906,1.119
12.646,-4.467,3.468,2.971,-1.662,0.899
10.446,-6.513,6.386,2.566,-3.149,0.764
5.886,-6.484,6.032,1.959,-4.405,0.337
1.837,-4.798,2.735,1.792,-4.356,-0.799
2.338,-3.422,0.563,2.393,-3.616,-2.329
5.147,-2.722,-1.301,3.29,-3.06,-3.983
9.312,-2.507,-1.207,4.449,-1.932,-5.484
13.543,-2.549,1.91,5.247,-1.035,-6.704
25.322,-0.792,16.871,4.901,-2.269,-6.421
27.003,0.06,27.713,2.639,-2.6,-3.564
31.412,11.367,42.778,-0.326,-2.864,-0.388
34.36,26.737,53.995,-3.58,-2.532,2.948
31.974,39.949,53.743,-6.473,-1.47,5.761
24.427,44.78,36.818,-7.169,0.168,6.763
22.456,44.976,23.175,-5.389,1.213,4.87
21.28,33.202,9.043,-2.85,2.272,3.246
17.97,17.189,-2.031,-0.573,1.484,1.762
19.654,3.716,-3.727,1.64,0.31,1.373
16.629,-3.295,0.147,2.471,-0.542,1.655
14.985,-4.759,4.016,2.316,-2.087,2.3
8.003,-4.468,4.441,1.848,-3.631,2.203
3.444,-3.847,3.688,1.615,-3.797,1.474
0.755,-2.654,1.183,1.64,-3.373,-0.106
2.05,-1.199,-0.766,2.297,-2.938,-1.993
4.924,0.074,-1.551,3.162,-2.691,-3.956
12.275,1.888,1.044,4.321,-1.312,-5.264
20.023,-1.861,7.496,4.689,-1.268,-5.748
24.876,-7.752,14.308,3.516,-1.299,-5.127
27.804,-9.731,25.137,0.813,-2.716,-3.268
32.689,-6.774,38.062,-2.132,-2.368,-0.057
37.454,1.752,50.685,-5.361,-2.489,2.971
31.326,18.417,49.494,-7.772,-0.42,5.669
33.161,29.801,38.024,-7.509,-0.385,6.407
30.465,31.795,24.555,-4.875,1.731,5.533
28.274,25.595,12.788,-2.162,1.738,4.047
18.493,14.641,-1.96,0.276,0.437,2.607
19.433,1.333,-5.686,2.648,-1.963,1.058
13.411,-4.907,1.721,3.485,-3.679,0.44
10.514,-6.558,6.43,2.966,-5.395,0.091
4.349,-4.643,5.651,2.497,-5.404,-0.931
3.691,-3.414,4.819,2.589,-4.222,-2.232
4.979,-1.678,3.86,3.052,-3.586,-3.65
7.918,-0.326,2.413,4.049,-2.157,-4.954
14.945,-0.054,3.863,5.118,-0.596,-5.63
22.779,-3.36,10.575,5.382,-0.652,-5.549
27.446,-7.715,20.432,3.391,-1.986,-4.386
30.784,-7.831,33.577,0.555,-2.525,-1.654
36.412,0.5,48.974,-2.607,-3.72,1.518
31.482,13.3,55.891,-5.792,-3.211,4.471
29.074,25.581,49.716,-7.828,-1.28,6.023
28.092,32.713,35.727,-6.704,0.032,5.756
26.576,32.994,20.302,-4.277,1.86,4.174
22.521,23.081,4.816,-2.004,2.968,2.457
24.027,10.125,-3.59,0.334,1.731,1.077
20.521,0.557,-2.452,2.191,-0.633,0.768
15.978,-3.608,3.773,2.986,-1.335,1.718
11.347,-3.863,6.248,2.922,-3.46,2.207
4.56,-3.539,5.889,2.919,-4.314,1.772
0.868,-3.587,3.832,2.756,-4.007,0.464
2.249,-2.575,2.158,2.987,-3.623,-1.328
5.992,-1.522,0.503,3.258,-3.591,-3.472
10.641,-1.685,1.348,4.038,-2.06,-4.692
16.765,-3.128,5.658,4.826,-1.641,-4.797
18.837,-8.865,12.023,4.825,-2.203,-4.406
22.879,-12.817,22.139,2.65,-2.17,-3.181
25.624,-10.15,34.787,-0.079,-2.161,-0.14
31.082,-1.84,47.428,-3.223,-2.345,2.408
33.492,9.71,50.103,-6.28,-0.598,4.664
36.564,21.478,43.978,-7.21,1.041,6.591
32.436,26.841,31.635,-5.483,2.347,7.04
29.919,23.255,17.826,-3.156,4.027,5.362
23.228,12.373,3.771,-1.044,4.143,3.648
18.923,0.772,-2.227,0.841,2.908,2.017
16.216,-5.837,-0.554,1.332,1.472,0.884
15.012,-8.08,2.62,1.019,-0.186,0.718
11.993,-7.128,4.192,0.743,-2.505,0.757
8.198,-5.322,5.613,0.82,-4.226,0.302
5.398,-2.942,5.561,1.456,-4.098,-0.447
5.403,-1.523,5.993,2.554,-3.503,-1.372
6.407,-0.72,6.294,3.697,-3.726,-2.422
8.384,-0.113,7.21,4.724,-3.117,-3.53
13.744,0.317,7.743,5.727,-1.789,-3.905
18.736,-2.348,10.035,5.994,-2.235,-3.919
21.612,-8.155,13.887,4.717,-2.626,-3.731
25.884,-10.524,20.071,2.141,-3.137,-2.933
27.937,-9.787,26.603,-0.823,-4.221,-0.782
34.064,-3.663,34.787,-3.819,-4.869,1.761
36.683,9.499,42.615,-6.496,-4.107,4.155
31.634,23.393,41.159,-7.95,-2.409,6.069
30.899,31.891,30.699,-6.822,-0.098,6.264
30.709,32.785,17.831,-4.86,1.696,4.862
23.455,27.242,6.064,-2.36,2.697,2.877
20.23,15.517,-2.83,0.293,2.346,1.058
24.162,6.434,-4.123,2.587,-0.102,0.044
19.255,-0.251,0.403,3.455,-1.756,0.259
15.658,-2.634,5.982,3.724,-2.626,0.878
11.97,-3.677,8.714,3.357,-4.009,1.103
7.192,-3.251,7.524,2.936,-4.752,0.671
3.484,-2.476,5.495,2.929,-3.884,-0.606
2.899,-1.804,4.169,3.019,-3.121,-2.193
3.538,-0.392,3.648,3.411,-1.755,-3.855
8.712,1.723,4.87,4.072,-0.268,-4.794
14.579,2.069,6.009,4.511,0.73,-4.938
19.326,0.321,9.034,4.655,1.336,-4.21
22.841,-4.45,14.373,3.6,0.4,-3.154
24.659,-7.406,19.702,1.379,-1.184,-1.407
23.406,-8.15,26.013,-1.597,-2.005,0.82
24.373,-2.883,34.649,-4.379,-2.663,3.214
23.43,7.727,37.285,-6.914,-2.78,5.034
21.504,19.423,32.253,-7.96,-0.843,6.062
22.184,25.5,22.981,-6.927,0.384,5.905
20.491,26.637,11.194,-4.701,0.827,4.367
18.238,22.667,0.263,-1.938,1.915,2.273
18.999,13.658,-4.089,0.706,1.165,0.401
19.454,6.377,-2.473,2.963,-0.591,-0.536
16.505,2.109,3.423,4.162,-1.456,-0.605
14.551,0.142,8.84,4.698,-2.217,-0.219
10.099,-0.831,10.921,4.833,-3.315,-0.067
5.73,-1.097,10.859,5.274,-2.944,-0.485
5.131,-1.133,10.715,5.859,-1.886,-1.485
8.527,-2.871,10.501,6.21,-0.773,-2.623
12.724,-6.543,12.498,5.945,-0.018,-3.475
19.284,-11.092,17.64,4.623,-0.218,-3.73
22.595,-12.347,23.917,2.126,-1.831,-2.836
24.92,-10.732,31.418,-0.824,-3.206,-0.574
28.02,-0.975,41.352,-3.921,-4.424,2.085
28.34,12.179,45.59,-6.433,-3.848,4.56
24.496,24.9,40.727,-7.992,-1.959,6.126
26.315,32.425,29.362,-7.277,-0.045,6.301
24.054,32.922,16.23,-5.466,1.106,5.03
20.086,24.881,3.215,-2.764,2.508,3.285
19.129,13.311,-3.278,-0.207,1.522,2.004
18.713,4.453,-3.735,2.158,-0.592,1.57
13.913,-1.754,0.923,3.149,-1.63,1.609
11.835,-3.981,5.044,3.346,-2.542,1.7
7.425,-4.482,6.17,2.934,-4.32,1.252
2.794,-2.841,4.095,2.741,-4.515,-0.233
1.514,-1.838,2.45,2.993,-3.652,-2.337
4.558,-0.741,2.554,3.75,-2.373,-4.303
10.734,-1.342,4.476,4.473,-1.315,-5.393
17.142,-3.335,7.383,4.647,-0.104,-5.352
23.352,-7.848,13.082,3.56,-0.921,-4.353
27.844,-10.014,19.42,1.488,-2.106,-2.033
30.648,-8.092,25.477,-1.16,-3.443,1.188
31.443,1.059,30.358,-3.859,-3.892,3.945
26.333,10.802,30.232,-5.753,-3.279,5.838
24.802,22.209,21.811,-5.924,-1.202,6.71
21.849,26.761,11.054,-4.579,-0.406,5.908
16.466,24.615,1.354,-2.239,0.52,3.557
13.636,14.351,-3.201,0.65,0.776,1.479
15.065,5.23,-2.942,2.741,-0.948,0.115
11.652,-2.665,1.906,4.063,-2.144,-0.227
8.899,-6.619,7.779,4.446,-1.981,-0.001
7.629,-7.861,10.419,3.932,-2.183,0.611
3.039,-7.015,7.882,3.078,-2.492,0.383
1.109,-5.411,3.208,3.009,-1.516,-0.999
3.454,-3.544,0.803,3.69,-0.728,-3.118
10.355,-3.403,2.03,4.347,-0.542,-4.981
16.871,-3.917,5.776,4.774,0.396,-5.816
22.852,-5.522,12.736,4.06,-0.395,-5.849
26.449,-7.0,20.652,2.358,-2.057,-4.335
27.052,-6.102,29.419,-0.199,-3.718,-1.587
26.529,1.897,34.607,-2.793,-4.66,1.7
24.967,13.683,35.78,-4.958,-5.059,4.275
21.062,22.788,28.955,-6.232,-2.777,5.957
21.064,29.227,19.14,-6.137,-1.009,5.886
19.957,29.057,7.216,-4.815,0.578,4.889
17.029,21.544,-1.546,-2.82,1.748,3.38
13.982,9.897,-5.776,-0.89,1.199,1.935
13.35,2.494,-5.143,1.149,-0.282,1.195
9.573,-2.689,-1.355,2.407,-0.95,1.104
6.717,-4.19,2.337,2.832,-1.548,0.637
4.191,-4.015,3.045,3.173,-1.818,-0.294
6.2,-1.954,2.82,4.113,-1.747,-1.288
10.091,-0.81,4.464,4.843,-2.9,-2.489
14.395,-0.993,4.51,5.643,-3.15,-3.538
20.332,-3.102,7.491,6.208,-2.034,-3.802
26.278,-7.232,14.357,5.656,-3.046,-3.041
26.558,-10.572,22.037,3.239,-3.48,-1.661
25.94,-10.442,30.237,0.146,-2.719,0.725
30.068,-3.13,40.191,-2.896,-2.015,3.425
29.127,10.072,42.776,-5.759,-2.602,5.54
24.697,23.498,35.856,-7.223,-1.283,6.642
21.727,30.922,25.536,-6.167,-0.504,6.38
19.703,32.148,13.314,-3.74,0.829,4.791
15.61,25.186,2.504,-1.215,1.149,3.103
14.098,13.749,-2.683,1.266,0.777,1.947
13.508,4.179,-1.137,3.139,0.459,1.437
13.687,-1.446,2.017,3.694,-0.114,1.823
11.568,-3.69,4.417,3.825,-1.595,2.293
6.945,-3.833,5.011,3.857,-2.618,2.079
4.525,-4.112,4.169,4.015,-2.796,1.022
5.254,-3.706,4.078,4.396,-2.961,-0.635
7.769,-3.931,3.877,4.78,-3.308,-2.777
11.416,-4.03,2.805,5.309,-2.864,-4.491
15.83,-5.049,5.839,5.591,-2.36,-5.465
22.155,-5.65,12.915,5.29,-1.015,-5.145
24.412,-4.686,22.23,3.155,-2.455,-3.424
26.955,2.142,34.785,0.217,-1.648,-0.347
30.685,14.544,50.392,-2.869,-1.38,2.699
30.22,31.876,55.534,-5.708,-0.801,5.508
26.187,43.017,49.391,-8.047,-1.103,7.04
24.219,47.472,35.774,-7.57,0.599,6.871
19.692,42.549,19.463,-5.617,0.928,5.388
14.976,30.183,3.23,-3.473,1.641,3.769
14.133,13.245,-4.467,-1.325,1.694,2.523
13.25,3.095,-4.424,0.812,1.202,2.01
12.199,-2.398,-0.606,1.809,0.953,2.083
11.252,-3.509,2.282,2.308,-0.038,2.196
8.643,-3.145,3.045,2.709,-1.325,2.075
6.559,-2.64,2.183,3.237,-1.624,1.374
7.678,-2.643,2.011,3.953,-2.528,0.371
8.638,-2.333,2.038,4.786,-3.399,-1.083
11.104,-1.832,3.954,5.639,-3.234,-2.426
15.736,-1.558,7.387,6.243,-3.089,-3.28
19.236,-3.559,14.098,6.071,-3.653,-3.795
23.01,-6.412,24.942,3.96,-3.061,-3.566
25.212,-4.162,37.932,0.861,-3.644,-0.993
34.304,6.029,49.378,-2.443,-3.72,1.72
34.1,20.34,50.667,-5.592,-2.769,4.315
31.961,29.307,43.003,-7.152,-1.438,6.38
26.928,35.094,28.693,-5.837,-1.144,6.726
24.375,32.978,14.399,-3.155,1.242,4.933
14.492,20.842,1.793,-0.458,2.073,3.183
12.276,5.283,-1.326,2.141,2.006,1.543
11.765,-2.487,1.214,3.479,0.838,0.369
10.593,-6.308,4.902,3.646,0.381,0.185
9.623,-7.964,6.344,3.237,-1.092,0.215
8.01,-7.347,6.098,2.891,-2.486,0.007
6.901,-6.21,5.084,3.004,-3.288,-0.473
7.554,-4.703,4.829,3.681,-3.751,-1.001
8.863,-3.184,5.165,4.552,-3.985,-1.807
11.068,-2.652,6.0,5.422,-3.547,-2.682
13.929,-5.41,7.603,5.451,-2.696,-3.696
19.722,-8.414,14.06,3.987,-2.147,-4.403
24.069,-8.993,22.37,1.466,-2.973,-3.907
28.824,-5.19,33.585,-1.464,-3.281,-1.396
34.568,9.554,47.624,-4.606,-3.552,1.242
30.004,24.818,52.144,-6.987,-1.919,4.214
28.378,36.897,43.282,-7.461,-1.254,5.471
25.884,39.646,30.86,-5.868,0.356,5.029
24.763,35.84,18.166,-3.37,1.942,3.361
19.713,20.301,4.13,-0.905,2.069,2.048
22.806,8.256,-1.432,1.502,0.041,0.91
18.465,-0.91,1.505,2.962,-1.813,1.294
14.295,-3.62,5.432,3.239,-2.928,1.932
8.287,-4.658,6.722,2.865,-4.712,1.888
3.936,-3.647,5.489,2.693,-4.989,1.206
1.676,-3.57,4.21,2.609,-4.651,0.098
2.298,-3.081,2.265,3.156,-3.167,-1.011
5.346,-2.383,2.438,3.888,-2.457,-1.898
8.778,-2.339,2.371,4.469,-2.273,-3.107
14.175,-2.055,4.254,5.198,-1.387,-3.983
18.725,-5.157,9.421,5.225,-1.733,-4.543
26.193,-10.03,19.727,3.614,-3.151,-4.503
28.283,-10.907,30.954,0.574,-4.059,-2.35
35.936,-0.894,45.724,-2.297,-3.586,0.571
37.426,12.503,50.712,-5.318,-3.486,3.442
35.315,24.934,46.064,-7.221,-1.513,5.537
29.496,34.216,33.489,-6.861,-0.208,6.137
26.414,35.272,18.077,-4.789,1.499,4.358
19.584,25.135,1.925,-2.431,2.429,2.36
17.356,10.65,-3.933,-0.079,2.108,0.755
17.809,0.686,-3.408,1.681,0.415,0.275
15.945,-4.556,0.375,2.304,-0.192,0.902
14.337,-5.597,3.738,2.347,-1.281,1.711
10.485,-5.184,4.554,2.086,-2.971,2.131
5.758,-4.337,3.32,1.606,-4.566,1.562
2.166,-3.277,1.076,1.385,-4.761,0.234
1.831,-2.265,-0.511,1.671,-3.989,-1.547
4.374,-2.721,-1.443,2.31,-3.471,-3.606
7.323,-2.75,-1.447,3.129,-2.545,-5.521
13.379,-2.244,3.909,4.195,-0.829,-6.839
24.336,-2.536,15.219,3.661,-1.383,-6.792
30.43,-2.729,28.418,1.223,-3.036,-4.132
37.678,11.442,44.513,-1.531,-3.409,-0.895
43.007,27.842,55.492,-4.449,-2.895,2.598
39.99,40.475,50.359,-7.385,-1.916,5.686
32.849,46.538,34.548,-7.134,-0.865,6.445
29.818,47.865,19.437,-4.4,0.883,4.538
25.225,32.971,5.912,-1.642,1.028,2.721
19.353,16.155,-3.566,0.902,-0.076,1.382
17.379,2.944,-2.149,3.371,-1.919,0.492
14.131,-3.605,4.935,3.926,-3.174,0.636
8.545,-5.724,8.263,3.284,-5.158,0.679
1.375,-4.519,5.721,2.508,-5.339,0.164
-0.728,-3.924,2.36,2.153,-4.3,-1.326
0.771,-3.585,-0.82,2.05,-3.133,-3.33
5.048,-2.583,-3.37,2.507,-2.096,-5.253
11.78,-1.146,0.853,3.391,-0.778,-6.733
25.405,0.921,14.476,3.537,0.966,-7.329
32.049,1.642,30.031,1.348,-0.884,-4.525
39.024,16.871,46.421,-1.018,-2.054,-1.226
42.894,32.013,59.701,-3.734,-1.817,2.267
38.636,45.394,58.606,-6.71,-0.704,5.308
31.659,53.145,42.022,-7.856,-1.961,6.99
25.895,55.551,22.703,-5.821,-0.068,5.203
20.181,41.663,6.12,-3.239,1.807,3.178
17.347,24.325,-4.634,-0.555,1.668,1.54
18.413,9.97,-6.819,2.039,-0.42,0.668
13.747,1.122,-2.033,3.778,-1.347,0.475
11.725,-2.014,4.943,4.206,-2.916,0.193
7.94,-4.043,6.583,3.942,-4.398,-0.194
4.127,-3.555,3.362,3.533,-4.128,-1.277
5.438,-5.161,0.336,3.27,-3.326,-2.84
7.202,-7.457,-1.492,2.689,-3.203,-4.768
10.226,-8.458,-3.737,2.48,-1.924,-6.166
16.248,-9.582,0.998,2.38,-0.886,-7.063
24.842,-7.434,14.338,1.224,0.024,-6.653
26.425,0.366,31.323,-1.107,-1.372,-3.767
32.265,16.53,44.977,-3.248,-1.611,-0.401
29.56,30.977,52.98,-5.502,-1.712,3.092
26.236,43.225,48.079,-7.22,-1.39,5.693
19.897,47.175,33.053,-6.393,-2.478,6.346
18.803,42.921,14.924,-3.856,-0.289,4.346
15.848,28.353,2.397,-0.971,1.0,2.646
19.308,14.402,-2.761,1.953,0.429,1.497
17.975,4.045,-0.267,4.3,-1.475,1.196
13.894,-0.988,5.048,5.024,-2.272,1.537
9.188,-3.28,8.263,4.904,-3.17,1.927
4.015,-4.903,6.578,4.206,-3.358,1.432
2.876,-5.064,3.735,3.57,-2.983,-0.015
4.809,-6.088,1.332,3.15,-2.503,-2.054
9.048,-7.224,-0.584,3.168,-2.196,-4.074
12.769,-9.494,3.17,3.523,-2.162,-5.958
22.991,-10.008,18.354,3.122,-0.815,-6.885
27.384,-6.684,34.586,0.834,-2.122,-4.289
34.164,9.469,50.243,-1.592,-2.098,-1.241
29.805,26.13,58.233,-4.28,-0.946,1.778
29.676,41.406,51.313,-6.493,-0.885,3.853
21.632,47.435,33.469,-5.908,-1.659,5.13
22.568,45.016,18.389,-3.094,-0.165,3.52
14.234,29.293,3.715,-0.381,-0.055,1.987
17.027,13.229,-2.541,2.395,-0.329,1.359
14.518,0.532,1.68,4.227,-0.982,1.697
11.35,-3.685,6.132,4.265,-2.179,2.176
3.804,-5.331,6.416,3.876,-2.279,2.319
3.004,-6.965,5.066,3.298,-2.083,1.847
2.694,-8.157,2.484,2.692,-2.864,0.346
4.419,-9.961,0.314,2.579,-2.502,-1.484
8.374,-11.972,0.268,2.863,-2.303,-3.568
11.435,-17.272,7.251,3.101,-3.275,-5.409
22.339,-14.946,23.275,1.054,-2.906,-5.044
27.114,-9.674,39.845,-1.115,-3.668,-2.597
29.457,5.801,50.365,-3.394,-3.614,0.312
28.567,21.516,52.445,-5.953,-2.3,2.988
29.411,35.925,42.367,-7.051,-0.786,4.79
20.667,37.428,23.64,-4.786,-0.576,4.295
18.714,33.192,8.989,-2.072,0.77,2.338
17.394,18.096,0.498,0.579,1.117,0.951
16.829,3.888,-0.313,2.992,-0.283,0.829
13.128,-3.764,3.324,3.843,-1.531,1.284
9.575,-5.869,7.186,3.883,-2.818,1.967
4.202,-6.102,5.926,3.422,-3.645,1.952
1.296,-5.957,2.967,2.997,-3.968,0.755
1.296,-6.452,-0.532,2.807,-3.655,-1.346
4.505,-7.273,-3.015,2.974,-2.905,-3.452
9.524,-8.753,-2.692,3.296,-2.3,-5.106
15.365,-10.893,0.645,3.546,-2.311,-5.774
21.87,-11.284,12.329,2.511,-3.062,-5.03
28.359,-5.894,24.691,0.153,-3.072,-2.031
32.673,1.925,35.761,-2.429,-2.267,1.126
32.862,15.355,42.705,-5.145,-1.716,3.864
32.001,27.852,40.73,-7.478,-0.011,5.727
28.929,35.893,27.298,-7.36,1.26,6.138
23.078,33.397,13.186,-5.368,1.877,4.316
19.648,26.153,2.548,-3.116,1.582,2.487
19.176,14.375,-4.661,-0.79,1.077,1.367
17.263,4.872,-4.678,1.352,-0.7,1.022
14.313,-1.422,-0.517,2.424,-1.479,1.29
11.816,-3.349,3.438,2.787,-2.56,1.644
6.997,-3.761,4.346,2.79,-3.49,1.623
2.768,-4.499,2.586,2.708,-3.548,0.82
1.201,-5.215,0.867,2.779,-3.044,-0.709
2.839,-6.117,-1.338,2.876,-2.507,-2.445
6.189,-6.831,-2.124,3.16,-1.84,-3.965
11.776,-8.843,-0.48,3.516,-1.737,-5.118
15.254,-12.066,5.569,3.425,-1.875,-5.338
20.458,-14.003,14.089,1.817,-2.273,-4.463
24.05,-11.53,25.532,-0.662,-2.749,-2.106
28.336,-3.385,37.762,-3.3,-2.228,0.883
29.008,11.28,45.025,-5.911,-1.38,3.704
29.2,25.119,40.748,-7.961,0.098,5.387
27.702,32.601,30.586,-7.238,0.941,5.639
25.458,32.939,17.484,-5.198,1.866,4.351
21.899,25.402,5.354,-2.878,1.394,2.619
18.672,12.746,-3.318,-0.577,0.892,1.251
17.751,2.608,-3.094,1.68,-0.248,0.856
14.195,-2.313,0.154,2.488,-1.152,1.146
10.618,-4.248,3.402,2.878,-2.294,1.444
6.47,-3.804,3.777,3.011,-3.33,1.119
4.232,-3.175,3.397,3.275,-3.156,0.221
3.961,-2.218,2.97,3.811,-2.736,-1.114
7.559,-2.407,3.072,4.396,-2.604,-2.51
12.092,-3.533,4.136,4.877,-2.305,-3.618
17.701,-6.282,7.389,4.974,-2.412,-4.274
21.173,-15.211,10.812,3.804,-2.701,-4.278
29.021,-19.388,19.671,1.112,-3.064,-3.256
30.873,-15.671,30.377,-1.778,-4.183,-0.625
37.041,-6.999,42.655,-4.688,-3.334,2.011
32.066,6.793,43.668,-7.16,-1.085,4.295
34.533,22.615,38.607,-7.473,0.237,5.47
28.127,28.672,25.509,-5.817,0.241,5.274
25.484,25.282,11.929,-3.534,2.139,3.615
17.724,16.992,-1.576,-1.247,2.045,2.022
19.958,5.313,-5.129,0.92,0.857,1.143
15.497,-1.623,-2.449,2.022,-0.918,1.16
12.377,-3.736,2.016,2.392,-1.898,1.359
8.303,-3.822,4.232,2.355,-3.407,0.974
4.814,-3.425,3.999,2.378,-4.229,0.017
3.191,-2.456,2.905,2.667,-4.042,-1.515
5.607,-1.904,2.121,3.371,-3.1,-3.111
9.955,-2.332,2.308,4.007,-2.27,-4.362
16.155,-4.233,3.91,4.711,-1.187,-4.716
20.77,-8.785,9.3,4.779,-1.39,-4.203
24.719,-13.541,16.323,3.271,-2.135,-2.751
28.125,-12.375,26.901,0.461,-3.358,0.043
33.417,-5.626,35.272,-2.405,-2.728,2.827
38.081,5.866,39.0,-5.355,-2.508,5.225
37.168,19.128,33.618,-6.986,-0.677,7.103
36.605,29.846,23.225,-6.556,0.535,7.409
30.651,30.629,8.291,-4.517,2.037,5.73
23.796,25.147,-3.125,-1.97,2.305,3.772
17.259,14.742,-7.745,0.611,2.275,1.914
16.89,5.6,-6.092,2.264,0.733,0.623
14.096,-1.107,-1.4,3.12,-0.821,0.364
12.746,-3.79,3.514,3.26,-2.352,0.372
9.121,-5.104,5.895,2.928,-3.843,0.159
4.864,-4.414,4.307,2.52,-4.358,-0.636
2.323,-3.436,1.632,2.527,-3.458,-2.133
4.999,-2.864,0.203,2.933,-1.926,-3.671
9.792,-3.633,-0.554,3.374,-1.099,-4.62
14.701,-5.571,0.623,3.791,-0.665,-4.907
18.566,-9.132,5.441,3.8,-0.602,-4.393
22.725,-13.624,12.687,2.54,-1.013,-3.072
24.277,-13.391,23.684,-0.178,-2.36,-0.807
28.226,-7.704,35.338,-2.878,-0.988,1.874
32.527,6.339,42.633,-5.51,-0.292,4.1
34.493,20.725,38.52,-7.539,0.693,5.553
32.992,31.36,28.973,-7.152,0.608,5.832
27.8,32.553,15.417,-4.957,1.689,4.422
23.294,28.418,3.798,-2.279,1.272,2.434
18.563,15.791,-3.279,0.177,0.154,1.075
14.32,4.884,-2.375,2.462,-0.729,0.425
12.281,-2.222,2.02,3.358,-0.815,0.427
11.929,-4.28,5.35,3.496,-1.806,0.689
7.594,-5.434,5.467,3.229,-3.363,0.426
3.761,-5.194,3.807,3.322,-3.059,-0.553
3.944,-4.964,3.427,3.666,-2.836,-1.899
6.165,-5.114,2.901,4.025,-2.653,-3.162
10.411,-6.463,3.125,4.353,-1.858,-3.783
14.741,-8.706,5.166,4.359,-1.592,-3.754
16.649,-12.474,9.191,3.556,-1.867,-3.283
19.859,-16.38,15.239,1.502,-1.484,-2.045
21.194,-15.085,24.483,-1.288,-2.09,-0.09
24.267,-8.886,34.006,-3.949,-1.455,2.293
25.875,4.058,37.335,-6.366,-0.333,4.049
28.013,15.022,33.187,-7.395,1.081,5.447
26.53,22.499,24.118,-6.604,1.359,5.587
25.97,23.418,11.778,-4.751,2.394,4.625
21.533,19.37,0.338,-2.735,1.48,2.867
17.914,9.105,-5.027,-0.54,0.886,1.661
15.792,1.934,-4.004,1.03,0.218,0.893
13.92,-1.962,-0.622,1.782,-0.841,0.788
10.26,-3.708,2.667,2.282,-2.01,0.68
7.49,-4.601,4.104,2.795,-2.729,0.236
6.277,-4.528,4.557,3.265,-3.272,-0.723
6.937,-4.166,5.187,3.87,-3.818,-1.941
8.677,-4.179,4.796,4.32,-4.114,-3.422
12.577,-4.442,5.196,4.75,-3.229,-4.311
15.66,-5.691,7.309,4.827,-2.057,-4.441
18.723,-11.263,12.394,4.167,-2.036,-4.021
18.472,-17.392,17.088,1.405,-1.984,-2.967
23.224,-16.38,25.778,-1.315,-1.747,-0.868
29.166,-10.299,36.188,-4.097,-2.504,1.744
30.388,2.449,42.713,-6.634,-2.598,4.076
28.235,15.753,38.454,-8.183,-0.651,5.726
29.589,26.581,29.69,-6.881,0.279,5.641
26.056,28.357,17.711,-4.855,1.32,4.508
20.322,23.092,6.08,-2.454,1.915,2.769
18.09,11.945,-2.288,-0.071,1.461,1.182
18.442,4.042,-2.744,2.044,-0.159,0.378
15.93,-0.576,0.786,3.194,-1.472,0.622
12.176,-3.309,4.539,3.819,-3.139,0.547
8.386,-4.482,5.956,4.113,-3.649,-0.073
7.357,-5.103,6.649,4.315,-3.678,-0.957
6.7,-5.144,6.278,4.415,-3.592,-2.104
7.808,-5.669,5.584,4.545,-2.735,-3.077
10.454,-6.644,5.316,4.415,-1.614,-3.408
12.649,-7.394,5.289,4.068,-0.968,-3.227
13.462,-9.687,6.885,3.361,-0.597,-2.797
14.088,-13.135,11.496,1.921,-0.524,-2.38
14.307,-13.499,19.546,-0.686,-1.182,-1.844
16.907,-9.193,28.236,-3.207,-1.947,-0.374
20.792,-2.032,38.299,-5.554,-1.344,1.804
23.287,12.799,46.211,-7.501,-0.788,3.662
25.576,27.195,41.739,-8.69,0.183,4.869
27.949,33.35,28.969,-6.975,1.15,5.221
26.594,32.67,17.917,-4.349,2.277,4.083
24.787,27.322,8.382,-1.477,1.175,2.19
22.295,14.389,-0.046,1.349,0.118,0.694
19.632,2.657,1.501,3.98,-1.74,0.166
14.66,-2.885,7.734,4.773,-3.339,0.112
9.708,-6.135,10.487,4.772,-4.663,0.113
4.499,-7.41,8.968,4.368,-4.635,-0.254
3.326,-7.056,5.872,4.024,-3.784,-0.879
4.702,-6.899,2.316,3.888,-2.842,-1.821
7.532,-8.18,0.403,3.648,-2.042,-2.877
10.974,-9.865,0.235,3.277,-1.405,-3.568
13.793,-13.435,5.109,2.578,-1.538,-3.672
17.867,-14.839,13.97,0.604,-1.839,-3.127
20.615,-11.47,28.831,-1.936,-2.182,-1.383
26.99,-5.319,44.448,-4.309,0.12,1.284
32.976,11.414,55.502,-6.562,-0.406,3.633
33.246,26.004,52.211,-7.847,1.457,5.505
32.587,32.765,41.638,-6.214,1.971,5.876
30.814,30.778,26.292,-3.631,2.681,4.56
26.011,24.981,12.111,-0.981,0.301,2.793
19.109,9.797,1.867,1.522,0.38,1.542
17.699,-0.902,1.519,3.504,-1.556,0.548
13.833,-5.988,5.227,3.812,-3.073,0.235
9.909,-6.889,7.825,3.728,-4.432,0.133
5.871,-6.14,7.386,3.644,-4.766,-0.487
4.872,-4.902,6.01,3.854,-4.14,-1.461
6.184,-4.585,4.724,4.268,-3.599,-2.68
9.295,-4.813,4.011,4.717,-2.844,-3.654
12.47,-6.804,5.685,4.835,-2.198,-4.302
15.37,-11.214,8.394,4.163,-1.435,-4.478
18.256,-14.43,15.084,2.02,-2.289,-4.235
22.119,-12.649,22.561,-0.86,-3.452,-2.751
26.322,-7.459,31.627,-3.643,-4.328,-0.076
29.437,5.11,39.318,-6.154,-3.579,2.605
26.045,18.616,39.226,-8.047,-2.337,4.863
25.972,28.963,29.976,-7.862,-0.816,5.695
22.577,30.867,19.106,-6.086,0.531,4.936
19.245,27.839,9.592,-3.821,2.014,3.12
16.114,17.535,0.339,-1.448,1.229,1.555
18.278,8.989,-1.954,1.195,-0.478,0.497
15.818,1.124,1.648,3.178,-1.733,0.663
13.118,-2.284,6.678,4.022,-3.307,1.079
7.712,-4.448,7.754,4.154,-4.904,0.73
3.982,-4.641,6.899,4.175,-4.589,-0.098
3.5,-4.341,5.423,4.3,-3.607,-1.331
5.513,-3.507,4.966,4.45,-3.093,-2.789
8.726,-4.48,4.9,4.494,-1.856,-4.233
13.568,-6.338,6.514,4.199,-0.571,-4.827
19.101,-10.445,13.413,2.959,-0.803,-4.816
21.785,-11.526,22.209,0.311,-2.661,-3.815
22.463,-9.073,31.966,-2.577,-2.991,-1.326
22.975,1.2,43.85,-5.241,-3.277,1.684
17.39,14.571,45.648,-7.458,-2.299,3.508
16.726,27.149,36.203,-7.555,-1.641,4.397
15.167,31.448,25.764,-5.413,0.135,3.994
17.355,30.103,15.566,-2.722,1.109,2.611
16.565,21.275,3.584,-0.093,1.103,1.0
20.548,10.37,0.756,2.548,-0.485,0.575
17.686,2.13,5.227,4.011,-1.388,1.011
15.669,-1.636,9.064,4.365,-2.769,2.007
8.736,-3.141,10.286,4.213,-4.471,2.357
3.981,-3.85,9.191,4.061,-4.819,2.159
1.158,-4.566,7.325,3.874,-4.693,1.237
-0.076,-5.186,4.7,3.752,-4.206,-0.477
1.593,-5.364,2.391,3.768,-2.973,-2.52
6.222,-5.95,1.946,3.815,-1.558,-4.303
11.486,-6.899,4.905,3.502,-1.0,-5.498
15.439,-8.922,10.101,2.49,-0.21,-5.908
19.093,-10.498,19.426,0.565,-1.782,-5.088
21.666,-7.58,29.988,-2.064,-3.008,-2.515
23.825,-0.774,41.479,-4.65,-2.711,0.592
26.636,13.326,48.777,-6.814,-2.473,3.596
26.307,25.378,44.462,-8.257,-1.93,5.561
25.109,33.7,33.208,-7.492,-0.279,5.911
23.005,32.879,20.169,-5.475,0.981,4.477
20.507,27.319,6.833,-3.086,0.78,2.581
16.746,14.293,-3.343,-0.524,0.57,0.925
15.431,5.133,-2.905,2.163,-0.931,0.123
13.338,-1.342,0.949,3.522,-1.62,0.092
10.863,-3.448,4.649,4.214,-2.404,0.182
7.717,-4.544,6.047,4.554,-3.349,0.018
5.558,-4.401,6.275,4.671,-3.818,-0.781
5.871,-4.58,6.21,4.886,-3.422,-1.968
8.911,-4.443,6.013,5.125,-2.927,-2.99
13.17,-5.88,6.67,5.165,-2.48,-3.562
16.52,-9.594,9.319,4.765,-1.677,-3.602
18.257,-16.771,13.666,3.192,-1.501,-3.241
20.238,-19.418,23.168,0.303,-2.551,-2.168
24.393,-16.092,36.176,-2.638,-3.496,0.231
29.902,-5.779,48.912,-5.391,-3.187,2.619
29.653,10.877,51.955,-7.72,-2.67,4.525
31.848,26.319,46.522,-7.855,-0.942,5.741
31.998,32.359,32.893,-5.888,0.652,5.967
26.051,29.301,17.229,-3.588,1.984,4.52
17.29,18.867,2.986,-1.127,2.343,2.842
15.499,5.245,-3.243,1.207,1.907,1.506
11.588,-3.277,-2.636,2.569,0.606,0.777
8.767,-6.686,0.558,3.022,0.035,0.425
7.984,-6.948,2.778,3.031,-0.63,0.048
8.563,-5.283,3.333,2.832,-1.193,-0.648
9.372,-5.086,4.136,2.617,-1.795,-1.723
11.19,-6.254,5.636,2.263,-1.533,-2.802
12.799,-11.892,9.044,1.253,-1.357,-3.919
17.294,-14.871,16.297,-0.568,-0.996,-4.541
20.643,-12.445,28.281,-2.83,-2.625,-3.39
24.916,-5.144,39.395,-4.949,-3.129,-0.785
27.932,8.708,46.304,-6.927,-3.762,1.902
23.733,22.47,44.301,-7.824,-2.467,4.397
23.2,31.432,33.235,-6.614,-1.786,5.754
20.38,30.81,17.721,-4.421,-0.154,5.089
17.276,25.335,4.687,-1.683,1.293,3.314
15.096,12.309,-2.568,1.079,1.361,1.938
17.957,4.52,-2.884,3.321,-0.794,1.105
13.452,-1.354,1.53,4.33,-2.324,1.133
10.925,-3.187,5.498,4.686,-3.367,1.427
6.862,-4.088,7.135,4.384,-4.715,1.337
3.34,-3.809,6.232,4.108,-4.619,0.595
2.605,-4.543,5.306,3.993,-3.525,-0.754
5.702,-5.069,5.648,4.191,-2.401,-2.302
11.01,-6.952,7.481,4.348,-1.745,-3.684
16.237,-12.172,12.564,4.06,-2.451,-4.677
20.303,-13.929,18.546,2.07,-3.656,-5.047
26.621,-12.662,29.231,-0.579,-5.544,-2.689
35.759,-7.261,41.321,-3.484,-5.468,0.174
40.755,6.977,47.223,-6.189,-5.045,3.151
37.329,20.596,42.179,-7.76,-2.106,5.93
37.058,27.54,32.842,-6.457,-0.057,7.087
32.891,28.377,19.753,-3.881,2.365,5.667
23.567,22.032,6.122,-1.182,2.413,4.243
15.295,8.303,-1.465,1.22,1.916,3.064
14.427,-0.692,-1.608,2.874,0.186,1.973
11.379,-5.697,2.007,3.151,-0.695,1.981
8.27,-6.96,4.429,2.603,-1.855,1.871
5.304,-4.528,4.3,2.11,-2.178,1.247
5.098,-2.051,3.585,2.233,-1.872,0.137
8.235,-0.618,3.792,2.931,-2.164,-0.99
10.893,0.274,5.496,4.006,-2.805,-2.169
14.825,-0.234,8.191,5.327,-2.699,-3.029
19.581,-4.018,13.221,5.981,-3.515,-3.481
20.801,-10.709,17.15,4.562,-4.077,-3.727
27.415,-14.924,26.303,1.974,-5.055,-2.401
29.19,-11.574,30.783,-0.63,-4.751,0.101
34.963,-4.182,38.371,-3.983,-3.983,2.707
30.707,7.718,37.078,-6.695,-2.278,4.693
33.874,19.823,31.573,-6.53,-0.27,6.245
27.732,25.639,18.788,-4.983,1.741,5.715
25.917,23.62,9.59,-3.194,2.761,3.863
19.828,16.765,-1.429,-0.477,2.336,2.019
21.644,7.66,-3.979,2.042,0.569,0.744
17.994,1.462,-1.011,3.617,-1.328,0.174
15.405,-1.0,3.814,4.481,-2.528,0.358
12.845,-2.989,7.893,4.851,-3.556,0.92
9.536,-3.203,9.964,4.742,-4.634,1.254
6.87,-2.903,10.662,4.679,-4.784,1.131
5.408,-3.046,10.636,4.439,-4.837,0.3
5.961,-2.874,10.483,4.357,-4.292,-1.133
8.462,-3.647,11.063,4.473,-3.865,-2.976
11.155,-7.476,14.039,4.525,-1.487,-4.429
16.994,-15.252,20.371,2.675,-1.742,-5.24
19.183,-16.202,29.326,0.068,-2.716,-3.932
23.793,-11.675,40.16,-2.604,-3.464,-1.181
26.88,-2.789,46.552,-5.426,-3.187,1.952
24.932,8.264,43.483,-7.73,-3.661,4.276
22.186,20.038,32.412,-7.05,-1.645,5.716
21.417,21.531,18.544,-5.143,0.145,5.223
17.275,16.807,3.961,-2.876,1.346,3.687
13.057,8.173,-4.947,-0.445,1.192,2.382
13.097,0.695,-5.991,1.659,0.043,1.804
10.378,-3.505,-2.487,2.641,-1.063,1.769
8.071,-3.726,1.141,3.131,-1.757,1.673
5.548,-3.203,3.157,3.297,-2.287,1.083
4.391,-2.35,3.584,3.391,-2.183,-0.108
6.002,-1.415,4.006,3.771,-2.193,-1.631
8.894,-0.991,5.803,4.403,-2.356,-3.208
13.556,-0.564,8.355,5.296,-1.438,-4.063
17.566,-2.979,12.913,5.811,-0.747,-3.918
20.735,-9.501,18.455,4.833,-1.645,-3.278
21.288,-13.568,26.15,2.418,-2.403,-1.638
24.089,-11.88,34.353,-0.629,-2.907,1.254
25.943,-5.754,41.117,-3.918,-2.6,3.773
25.672,5.568,40.677,-6.866,-2.457,4.931
25.502,17.714,33.055,-6.987,-0.724,5.926
25.049,23.175,20.886,-5.324,0.661,5.461
22.452,21.186,8.199,-2.844,2.048,3.798
18.75,13.654,-1.352,-0.414,0.726,2.203
16.52,4.416,-4.626,2.08,-0.327,1.561
13.706,-1.654,-1.251,3.063,-1.953,1.015
10.902,-3.661,3.265,3.33,-3.262,0.907
6.886,-3.677,5.898,3.216,-4.14,0.541
4.313,-3.199,6.213,3.246,-3.788,-0.281
4.495,-3.08,5.969,3.416,-3.25,-1.67
7.105,-3.087,5.913,3.874,-2.689,-3.198
11.42,-3.883,7.637,4.617,-1.68,-4.338
15.633,-6.674,11.362,5.176,-1.323,-4.773
18.666,-13.198,16.262,4.149,-1.5,-4.681
20.931,-16.368,22.971,1.609,-2.509,-3.54
21.39,-14.999,30.646,-1.258,-3.056,-1.15
21.904,-4.654,42.239,-4.356,-2.478,1.664
20.837,4.907,42.711,-7.281,-1.066,3.712
22.824,17.223,36.167,-7.927,-0.111,4.718
23.14,22.108,26.884,-6.176,1.533,4.769
22.832,20.867,17.413,-3.889,2.09,3.789
19.1,10.705,3.994,-1.458,0.453,2.047
16.476,2.942,0.301,1.068,-1.463,0.465
11.89,-3.518,3.279,2.718,-2.662,-0.071
7.359,-6.29,6.074,3.212,-3.957,-0.21
3.64,-6.714,6.804,3.369,-3.774,-0.413
3.102,-6.878,5.827,3.383,-2.757,-0.681
4.499,-6.791,4.777,3.368,-1.865,-1.159
6.63,-7.471,4.012,3.352,-1.346,-2.188
10.088,-9.732,5.345,3.053,-1.033,-3.58
12.389,-13.536,8.347,2.036,-1.959,-5.07
18.676,-14.771,17.38,-0.001,-3.184,-5.252
25.342,-12.111,27.642,-2.512,-5.014,-2.776
31.737,0.785,39.336,-4.934,-5.222,0.108
31.302,15.687,42.463,-7.003,-4.829,3.147
30.586,27.564,37.478,-7.246,-3.073,5.63
26.412,33.055,25.2,-5.392,-1.585,6.074
21.293,32.494,13.528,-2.726,0.491,4.018
15.86,20.88,1.858,-0.013,0.654,2.184
15.347,8.932,-1.905,2.677,0.026,0.929
14.498,1.211,1.427,4.173,-1.766,0.348
11.701,-2.197,6.171,4.644,-2.986,0.598
8.197,-3.345,8.49,4.653,-4.138,0.815
4.576,-3.591,8.081,4.601,-4.372,0.465
4.312,-3.709,7.433,4.66,-3.827,-0.624
6.566,-4.415,6.659,4.864,-3.061,-1.971
9.876,-6.298,7.546,5.044,-2.326,-3.263
12.815,-9.614,10.889,5.003,-1.729,-4.205
15.245,-14.929,16.649,3.404,-2.044,-4.993
18.052,-16.697,26.271,0.655,-2.853,-4.849
19.077,-14.335,38.409,-2.229,-4.176,-2.367
25.737,-3.826,51.549,-5.144,-4.617,0.422
22.877,11.197,53.998,-7.777,-3.896,2.872
25.223,26.383,47.208,-8.162,-1.663,4.439
24.051,31.257,33.758,-6.18,-0.473,4.738
24.693,30.394,19.561,-3.502,1.527,3.067
17.905,20.091,5.736,-0.657,1.865,1.622
19.836,8.164,0.747,2.224,0.588,0.925
15.414,-0.709,3.503,4.387,-2.077,1.29
11.266,-3.576,8.921,5.155,-3.621,1.941
5.707,-5.552,11.987,4.936,-4.713,2.19
2.349,-5.444,11.419,4.382,-4.736,1.769
1.076,-6.07,9.033,3.772,-4.192,0.442
2.927,-6.797,6.559,3.499,-3.073,-1.443
6.052,-8.505,4.307,3.433,-1.91,-3.458
10.257,-12.873,5.41,3.151,-1.319,-5.347
16.569,-13.576,15.836,1.925,-1.785,-6.745
21.712,-12.102,27.794,-0.287,-3.293,-5.726
25.832,-7.54,41.89,-2.854,-4.636,-2.8
26.474,9.275,53.444,-5.539,-4.684,0.619
22.623,26.77,49.426,-7.715,-3.377,2.937
22.368,34.019,33.386,-6.298,-2.623,4.136
21.57,35.395,22.056,-3.377,-0.596,3.324
19.284,31.021,10.412,-0.619,0.465,1.692
17.147,15.769,0.467,2.08,-0.091,0.26
18.349,3.517,3.183,4.818,-1.868,0.245
12.365,-1.866,10.04,5.062,-2.65,1.064
6.709,-4.609,11.887,4.663,-3.828,1.838
1.247,-5.371,10.593,4.496,-4.382,1.636
0.519,-7.579,9.073,4.247,-4.122,0.673
1.248,-8.107,6.74,3.914,-3.562,-0.919
4.556,-9.18,4.315,3.846,-2.378,-2.673
8.626,-12.096,4.305,3.631,-1.355,-4.627
11.471,-16.822,4.711,2.643,-0.474,-6.285
18.216,-15.755,16.56,2.036,-1.516,-7.383
21.137,-12.83,30.732,0.362,-3.105,-6.158
22.499,-2.703,46.306,-2.297,-4.998,-3.156
22.745,17.171,58.859,-4.662,-5.945,0.172
21.321,35.789,61.414,-6.265,-4.041,3.133
20.876,45.15,44.655,-6.637,-2.668,5.009
19.305,44.84,27.196,-4.943,-1.329,4.487
18.43,36.336,12.589,-2.005,1.132,2.474
19.412,18.763,1.375,0.617,1.478,1.167
20.426,5.693,0.187,3.038,-1.555,0.617
14.047,-2.221,6.37,4.059,-2.069,1.18
10.97,-3.917,11.591,4.027,-2.876,1.895
6.253,-4.652,11.626,3.425,-4.904,1.977
1.14,-4.277,8.642,3.177,-5.068,0.747
0.837,-3.938,5.829,3.467,-3.963,-1.175
3.854,-3.789,5.121,4.204,-2.825,-3.174
9.527,-4.701,5.716,4.993,-1.582,-4.559
14.194,-7.911,10.146,5.387,0.193,-5.092
21.597,-11.286,18.872,4.623,-0.916,-5.637
23.073,-12.158,32.894,2.021,-2.481,-4.363
26.353,-7.155,47.228,-1.209,-4.653,-1.311
29.755,10.046,60.533,-4.389,-5.841,1.435
25.516,23.661,58.302,-7.119,-4.912,3.622
25.029,35.231,46.081,-7.315,-3.254,5.128
24.959,38.229,28.727,-5.29,-1.258,4.801
23.706,33.334,12.829,-2.842,0.748,2.991
18.033,17.146,-1.802,-0.527,1.047,1.401
20.755,7.432,-3.5,2.097,-0.814,0.379
15.876,0.011,1.828,3.226,-1.54,0.856
13.073,-2.194,6.462,3.564,-2.751,1.566
6.912,-2.717,8.13,3.491,-3.905,1.731
2.675,-3.265,7.952,3.426,-3.991,1.181
-0.427,-4.688,6.785,3.089,-4.135,-0.246
-0.684,-3.911,4.703,3.314,-2.958,-2.639
4.671,-2.467,5.237,4.236,-1.585,-4.487
10.622,-4.177,7.382,4.937,0.028,-5.954
20.576,-7.12,14.225,4.692,0.651,-7.081
25.747,-9.749,24.824,3.344,-0.592,-6.628
30.206,-9.914,38.219,1.16,-2.701,-4.068
33.997,-3.199,51.757,-1.921,-4.859,-0.873
34.186,12.544,60.669,-4.996,-6.403,2.239
24.804,26.282,57.293,-7.001,-4.683,5.458
28.119,38.398,40.504,-5.877,-2.591,6.551
25.111,42.205,23.846,-3.24,-1.091,5.143
22.994,35.153,11.99,-0.061,1.004,3.692
20.639,19.382,5.516,2.839,0.085,2.448
20.754,9.298,4.815,5.516,-2.433,1.352
12.956,-0.311,12.441,5.747,-3.409,1.431
9.138,-4.773,17.112,4.631,-4.407,2.205
0.566,-6.597,13.928,3.205,-5.594,1.737
-3.829,-5.153,7.598,2.362,-3.988,0.585
-3.685,-5.719,2.897,1.904,-2.385,-1.344
-0.435,-3.749,1.189,2.391,-0.969,-3.676
5.993,-3.862,1.09,3.101,0.233,-5.603
12.012,-5.65,5.382,3.861,2.29,-6.811
20.074,-8.004,19.24,3.506,0.683,-7.605
25.618,-7.451,31.336,1.593,-1.466,-5.974
28.972,0.03,46.845,-1.189,-3.997,-2.54
34.466,14.236,61.1,-4.004,-5.701,0.952
29.741,28.024,63.539,-6.83,-6.842,4.08
26.554,41.03,48.175,-7.884,-5.064,6.308
20.14,47.094,33.326,-5.804,-3.937,5.515
15.916,41.836,15.641,-2.89,-0.714,3.1
12.105,27.744,3.036,0.441,1.502,1.197
15.233,15.016,-1.367,3.392,0.586,0.068
12.145,4.406,2.765,5.508,-0.148,-0.031
12.707,-2.91,7.851,5.659,-0.189,0.986
9.795,-6.572,10.883,5.044,-2.703,1.928
1.028,-7.122,8.142,3.847,-4.178,1.885
-2.889,-6.415,5.196,3.045,-3.557,0.516
-2.812,-6.092,2.836,2.65,-2.383,-1.601
2.039,-3.623,2.786,3.021,-1.322,-3.514
8.122,-2.764,3.536,3.439,-0.302,-5.273
15.216,-3.265,6.71,3.897,1.294,-5.966
21.572,-8.485,12.797,3.293,0.791,-6.158
24.796,-11.595,22.481,1.581,-1.427,-4.852
24.864,-11.891,33.29,-1.237,-3.653,-2.026
27.946,-4.523,45.694,-3.954,-5.383,1.205
28.553,6.115,49.221,-6.546,-6.026,3.844
26.187,21.606,43.319,-7.606,-5.373,6.004
22.652,31.401,30.345,-6.637,-4.116,6.294
18.056,32.978,14.433,-4.364,-1.55,4.127
15.19,27.66,0.758,-1.154,1.447,1.908
14.583,17.08,-2.927,1.82,0.915,0.226
13.758,6.885,-0.495,4.095,-0.284,-0.501
13.338,-0.112,5.219,5.089,-0.864,-0.277
12.565,-3.627,10.152,5.165,-2.336,0.558
6.239,-6.418,10.294,4.308,-4.2,0.753
0.057,-5.762,7.232,3.649,-4.158,-0.091
-2.276,-4.996,4.369,3.287,-3.025,-1.842
0.49,-2.934,2.747,3.731,-1.275,-3.868
7.303,-1.79,5.286,4.527,-0.084,-5.143
13.405,-3.452,9.738,4.886,1.475,-5.649
19.404,-9.018,18.004,3.821,0.312,-6.01
22.697,-11.832,27.456,1.778,-1.303,-5.0
23.978,-12.323,39.308,-1.286,-3.729,-2.43
25.196,-6.032,51.4,-4.521,-5.796,0.483
27.226,6.048,58.967,-7.233,-7.92,3.013
25.344,22.354,55.185,-8.482,-5.428,5.901
27.764,34.409,42.797,-8.035,-3.476,6.716
24.475,38.973,26.27,-5.475,-1.95,5.044
20.905,35.4,10.184,-2.0,0.763,2.603
19.917,25.463,2.4,1.492,1.602,0.55
19.643,13.369,1.997,4.551,-0.452,-0.87
14.486,2.815,8.333,6.505,-1.749,-1.045
12.841,-3.989,13.817,6.476,-2.193,-0.054
8.065,-7.756,15.1,5.418,-4.045,0.579
0.441,-8.606,10.371,4.335,-4.279,0.378
-2.918,-7.172,5.572,3.782,-3.295,-1.065
-1.83,-5.991,2.052,3.855,-1.947,-3.103
4.362,-4.907,3.668,4.317,0.048,-4.368
12.903,-6.813,8.22,4.121,0.427,-5.215
18.954,-12.411,14.466,2.443,-0.747,-5.678
23.878,-14.38,23.584,0.103,-2.209,-4.716
29.67,-13.207,32.514,-2.465,-3.485,-2.391
32.562,-9.463,43.642,-5.356,-6.563,0.369
29.503,1.206,50.163,-7.345,-7.077,3.024
25.312,17.358,47.715,-8.077,-4.836,5.504
24.859,28.771,35.622,-7.132,-3.12,5.963
19.314,31.93,22.965,-4.91,-2.329,4.414
15.698,30.793,8.693,-1.683,0.426,2.056
16.558,22.232,-0.188,1.255,0.798,0.417
17.185,12.151,-2.32,4.124,-1.02,-0.854
12.959,3.073,2.785,6.135,-1.764,-1.1
11.192,-2.362,8.922,6.693,-2.133,-0.261
6.221,-5.986,9.525,6.012,-3.741,0.148
0.602,-6.188,6.852,5.268,-3.783,-0.44
-0.3,-5.947,4.711,4.774,-2.403,-1.86
2.987,-4.522,3.824,4.474,-1.28,-3.454
8.6,-2.951,3.258,4.407,-0.857,-5.067
13.458,-2.065,6.112,4.612,0.852,-6.193
22.431,-4.213,15.007,4.55,0.456,-7.036
26.214,-5.354,25.655,2.872,-1.348,-6.266
31.312,-4.321,40.523,0.246,-3.442,-2.984
34.738,5.829,54.701,-2.067,-5.015,0.409
34.424,19.152,63.107,-4.51,-7.281,3.485
28.002,33.896,56.994,-6.873,-5.078,6.555
26.953,44.313,42.823,-6.306,-3.885,7.244
17.683,45.624,21.248,-3.998,-1.403,4.558
15.069,37.047,6.908,-1.375,1.911,2.708
15.737,22.884,-3.012,0.894,2.184,1.169
15.002,11.631,-4.669,3.617,-0.284,-0.254
12.647,2.947,0.889,5.302,-0.619,-0.301
13.716,-0.921,9.277,5.666,-2.265,0.693
7.873,-3.392,9.64,4.961,-4.703,0.789
3.496,-3.12,9.311,4.523,-4.98,0.345
3.021,-5.52,8.684,3.965,-4.807,-1.002
3.83,-6.082,6.671,3.258,-4.321,-2.945
7.869,-5.921,4.529,3.011,-3.313,-4.746
13.369,-6.005,3.84,3.252,-2.23,-6.484
16.707,-9.797,10.125,3.441,-0.013,-7.61
23.037,-9.07,24.912,2.237,-0.798,-7.028
30.933,-6.07,40.89,-0.006,-1.317,-3.571
31.063,8.74,56.219,-2.629,-2.342,-0.078
26.354,25.41,68.504,-5.449,-2.765,3.414
29.025,45.531,60.388,-7.877,-3.469,5.676
22.921,55.083,40.686,-6.39,-1.723,6.295
18.03,55.118,24.549,-3.195,-0.142,4.221
19.57,39.306,12.834,-0.035,0.031,1.907
22.036,20.972,3.255,2.848,-0.244,0.439
17.048,4.416,6.421,5.62,-1.195,0.232
16.155,-4.084,12.65,5.88,-2.304,0.768
10.56,-7.013,15.234,5.296,-4.283,1.318
3.89,-6.951,12.811,4.589,-3.961,1.739
0.964,-6.503,9.871,4.092,-3.588,0.918
1.697,-6.331,7.053,3.797,-3.066,-0.723
4.801,-7.607,4.375,3.617,-2.246,-2.632
8.771,-9.612,2.664,3.608,-1.462,-4.6
