ax,ay,az,gx,gy,gz
-3.083,-9.509,-2.511,0.027,-0.218,0.1
-3.673,-9.463,-2.755,-0.045,-0.118,-0.028
-3.753,-8.804,-2.512,-0.105,0.04,-0.184
-3.423,-8.287,-2.395,-0.122,0.059,-0.278
-3.035,-8.038,-2.38,-0.105,0.129,-0.273
-2.29,-8.071,-2.489,-0.062,0.214,-0.139
-2.074,-8.369,-2.526,-0.011,0.013,0.034
-2.66,-8.887,-2.596,-0.001,-0.173,0.124
-3.295,-9.253,-2.643,-0.041,-0.128,0.07
-3.341,-9.347,-2.655,-0.103,0.021,-0.047
-3.15,-9.142,-2.623,-0.162,0.095,-0.16
-2.69,-8.861,-2.776,-0.176,0.216,-0.201
-1.766,-8.632,-2.905,-0.151,0.329,-0.066
-1.48,-8.563,-2.94,-0.092,0.116,0.169
-2.396,-8.711,-2.921,-0.045,-0.112,0.316
-3.303,-8.904,-2.951,-0.027,-0.048,0.303
-3.57,-8.946,-2.867,-0.035,0.111,0.186
-3.423,-8.822,-2.865,-0.035,0.237,0.037
-2.622,-8.497,-2.952,-0.021,0.458,0.009
-1.395,-8.121,-2.941,0.024,0.541,0.21
-1.757,-7.8,-2.594,0.096,0.11,0.418
-3.115,-7.806,-2.5,0.123,-0.023,0.429
-3.718,-8.287,-2.552,0.07,0.203,0.354
-3.486,-9.425,-2.886,-0.167,0.32,0.194
-1.377,-12.63,-3.862,-0.691,0.557,0.039
2.894,-17.071,-4.708,-1.515,0.883,-0.235
4.729,-21.044,-4.324,-2.359,0.611,-0.24
4.457,-20.905,-2.907,-2.845,1.156,0.436
4.123,-14.713,-2.589,-3.494,2.69,2.061
3.144,-0.502,0.055,-2.532,1.864,2.691
0.673,6.897,-0.724,-1.353,0.116,1.927
-3.021,18.469,-0.969,-0.295,-0.6,0.518
-1.799,20.882,-2.035,0.566,-2.391,-0.325
-4.434,13.447,-1.47,1.893,-5.66,-2.164
-7.728,0.182,-3.153,1.958,-4.925,-2.822
-8.861,-5.502,-1.054,2.044,-2.782,-1.756
-5.796,-14.41,-0.696,2.089,-2.011,-0.332
-7.151,-17.004,-0.456,1.877,-0.797,-0.168
-4.736,-14.921,-0.45,1.48,1.021,-0.008
-3.181,-13.11,-0.036,1.016,0.852,-0.192
-3.173,-10.802,-0.341,0.587,0.55,-0.419
-3.083,-9.714,-0.276,0.356,0.78,-0.375
-2.602,-9.353,-0.244,0.261,0.44,-0.286
-2.794,-9.201,-0.262,0.196,0.179,-0.199
-2.642,-9.182,-0.2,0.101,0.157,-0.178
-2.572,-9.266,-0.233,-0.045,-0.067,-0.376
-2.999,-10.622,-0.516,-0.301,-0.232,-0.731
-2.226,-12.823,-1.255,-0.678,-0.027,-1.1
0.592,-17.9,-1.088,-1.097,0.554,-1.268
3.054,-21.347,0.036,-1.772,0.525,-1.173
3.627,-20.553,0.974,-2.29,0.777,0.091
3.07,-6.779,0.952,-3.824,2.544,2.198
2.671,-0.236,4.032,-3.107,1.497,3.111
-1.389,7.627,3.321,-2.677,-0.23,1.544
-4.648,16.651,0.798,-1.777,-0.245,1.007
-4.136,16.01,-0.484,-0.783,-1.142,-0.195
-6.248,4.134,-0.491,1.372,-4.072,-2.132
-9.188,-1.646,-2.39,1.36,-2.999,-2.623
-8.519,-5.766,-1.477,1.57,-1.361,-0.628
-8.366,-11.58,0.236,1.547,-1.408,-0.058
-9.404,-12.251,1.015,1.279,-0.264,0.183
-6.379,-12.907,0.999,1.007,1.026,0.218
-3.925,-11.825,0.294,0.729,1.018,0.027
-3.827,-10.698,-0.264,0.591,0.559,-0.355
-3.315,-10.348,-0.627,0.45,0.79,-0.426
-3.376,-9.473,-1.068,0.325,0.464,-0.493
-3.237,-9.281,-0.969,0.134,0.529,-0.348
-3.313,-9.501,-1.026,-0.07,0.292,-0.359
-3.538,-10.539,-1.4,-0.422,0.329,-0.488
-3.361,-11.895,-2.253,-0.861,0.623,-0.759
-2.371,-14.106,-2.987,-1.513,1.147,-1.101
-1.368,-16.709,-3.117,-2.19,1.625,-1.445
-0.279,-18.614,-2.432,-2.741,2.227,-1.475
0.853,-17.632,-1.001,-3.157,2.836,-0.777
0.84,-13.133,-0.171,-3.805,4.176,0.595
4.955,4.944,2.385,-3.574,4.015,2.03
6.979,8.491,1.975,-2.657,1.698,2.264
5.219,16.934,0.691,-1.619,-0.605,0.748
4.073,19.849,-2.396,-0.612,-1.976,0.21
4.223,17.011,-2.804,0.872,-5.271,-1.22
-4.127,0.092,-5.004,1.737,-7.039,-2.642
-8.505,-1.741,-4.563,1.99,-4.693,-2.629
-6.583,-9.041,-2.942,2.057,-2.372,-0.789
-6.135,-12.545,-1.327,2.023,-1.926,-0.842
-6.227,-13.327,-0.976,1.761,-0.092,-0.562
-2.743,-12.708,-0.783,1.444,1.305,-0.41
-1.287,-12.08,-0.696,1.054,0.668,-0.46
-2.049,-10.938,-1.511,0.646,0.198,-0.671
-1.559,-10.405,-0.886,0.338,0.308,-0.585
-1.484,-10.27,-0.932,0.1,-0.075,-0.565
-1.391,-10.419,-0.912,-0.135,-0.256,-0.461
-1.071,-10.68,-1.457,-0.375,-0.316,-0.391
-0.491,-11.82,-2.541,-0.711,-0.188,-0.371
1.242,-14.744,-3.063,-1.119,0.527,-0.322
2.809,-18.193,-2.855,-1.616,0.771,-0.336
3.079,-19.216,-1.635,-1.981,1.248,0.213
2.611,-16.084,-0.918,-2.325,2.957,1.763
7.236,0.159,2.967,-3.622,3.152,3.556
3.414,6.406,2.506,-2.626,0.791,2.86
2.016,14.47,0.003,-1.784,0.228,1.552
2.088,20.478,-2.688,-0.938,-0.436,0.583
1.88,18.662,-3.254,-0.117,-3.748,-1.586
-6.053,4.03,-6.616,1.736,-4.979,-3.625
-5.045,0.084,-5.685,1.44,-3.424,-3.0
-6.049,-4.963,-3.336,1.452,-3.169,-1.685
-6.861,-10.55,-1.567,1.328,-2.845,-1.179
-6.697,-12.007,-0.961,1.245,-0.931,-0.479
-3.93,-13.022,-0.315,1.176,0.13,-0.241
-2.831,-12.568,-0.291,1.012,0.428,-0.221
-2.086,-12.249,-0.291,0.777,0.714,-0.199
-1.754,-11.391,-0.514,0.556,0.683,-0.281
-1.86,-11.084,-0.708,0.315,0.492,-0.353
-2.272,-10.903,-0.916,0.044,0.124,-0.475
-2.45,-11.306,-1.333,-0.311,0.079,-0.613
-1.614,-12.05,-2.196,-0.729,0.221,-0.775
-0.031,-14.314,-2.465,-1.192,0.714,-0.844
1.791,-17.16,-1.858,-1.75,0.936,-0.864
2.648,-18.339,-1.345,-2.21,1.392,-0.384
3.051,-16.654,-0.307,-2.537,2.429,0.939
3.552,-9.3,1.057,-3.851,3.912,2.761
2.884,1.012,1.551,-3.048,2.543,3.042
1.813,6.496,-0.27,-2.548,1.441,2.397
-0.027,14.559,-1.994,-1.608,0.665,1.117
0.582,16.127,-4.277,-0.817,-0.807,-0.305
-1.888,11.695,-5.293,1.211,-4.299,-2.308
-6.152,3.917,-5.542,1.204,-4.383,-2.63
-8.353,1.211,-3.668,1.791,-3.596,-2.059
-7.577,-6.685,-1.22,1.856,-3.257,-1.242
-8.918,-10.305,1.028,1.958,-2.595,-1.031
-7.167,-12.71,2.192,1.808,-0.5,-0.72
-3.266,-13.275,2.568,1.568,0.608,-0.61
-1.824,-13.031,1.93,1.159,0.668,-0.504
-1.336,-11.723,1.034,0.768,0.924,-0.348
-1.436,-10.967,0.607,0.429,0.588,-0.284
-2.323,-10.714,0.254,0.09,0.181,-0.266
-3.19,-10.839,0.129,-0.277,0.027,-0.33
-3.012,-11.516,-0.039,-0.728,0.052,-0.481
-2.566,-12.838,-1.143,-1.258,0.221,-0.746
-0.657,-15.331,-1.44,-1.698,0.89,-0.974
1.805,-18.473,-0.39,-2.197,1.287,-1.098
2.404,-19.025,-0.089,-2.472,1.578,-0.48
2.486,-15.483,0.849,-2.971,3.309,1.35
8.886,3.477,2.86,-3.146,2.838,2.85
6.117,7.839,0.726,-2.458,0.519,2.296
3.371,19.234,-2.142,-1.929,-0.827,0.81
2.848,23.034,-3.894,-1.084,-1.644,-0.2
1.885,19.2,-4.618,0.014,-4.768,-2.179
-7.852,1.037,-5.837,0.977,-5.331,-3.517
-7.321,-2.075,-3.017,1.202,-3.532,-2.676
-6.998,-11.355,-0.782,1.644,-2.843,-1.078
-7.294,-14.711,1.06,1.545,-2.118,-0.697
-6.348,-13.757,1.321,1.441,-0.445,-0.496
-3.24,-13.363,1.816,1.181,0.481,-0.516
-2.568,-12.096,1.404,0.761,0.434,-0.649
-2.283,-10.723,0.919,0.409,0.857,-0.625
-1.659,-10.023,0.615,0.172,0.864,-0.478
-1.658,-9.973,0.819,-0.008,0.55,-0.373
-1.989,-10.533,0.745,-0.21,0.259,-0.404
-2.219,-11.45,0.216,-0.546,0.146,-0.567
-1.727,-13.07,-0.597,-1.006,0.522,-0.768
-0.359,-15.23,-0.855,-1.496,0.739,-1.009
0.852,-17.217,-1.009,-2.037,0.879,-1.07
1.62,-17.829,-0.946,-2.332,1.226,-0.686
2.792,-16.642,0.588,-2.534,2.358,0.579
3.021,-10.621,1.2,-3.224,3.564,2.289
4.017,4.977,0.843,-2.904,2.971,3.131
3.659,8.136,-1.407,-2.418,1.968,2.872
2.005,18.131,-2.955,-1.981,0.802,1.202
1.028,20.328,-5.105,-1.242,-1.524,-0.134
-2.152,15.762,-4.313,0.147,-4.955,-2.129
-7.083,1.581,-3.721,0.58,-4.942,-2.87
-8.599,-0.759,-1.743,1.109,-3.923,-2.618
-7.644,-10.506,0.041,1.527,-2.792,-1.147
-7.63,-13.251,1.462,1.66,-1.507,-0.873
-5.119,-13.517,1.282,1.673,0.391,-0.399
-2.768,-12.984,1.275,1.583,0.628,-0.333
-2.429,-11.88,1.418,1.264,0.497,-0.272
-2.893,-10.866,1.124,0.932,0.322,-0.367
-3.11,-10.643,1.199,0.55,0.365,-0.365
-3.671,-10.659,1.052,0.177,0.212,-0.428
-3.763,-11.228,0.961,-0.244,0.257,-0.52
-3.616,-12.016,0.618,-0.746,0.38,-0.711
-2.675,-13.352,-0.188,-1.33,0.678,-0.949
-1.108,-15.706,-0.507,-1.786,1.132,-1.203
1.448,-18.307,-0.127,-2.256,1.572,-1.245
3.002,-18.63,0.57,-2.537,2.102,-0.284
2.725,-13.761,1.337,-3.118,3.719,1.468
6.644,1.214,1.74,-2.795,2.708,2.817
3.56,5.69,-0.458,-2.434,1.171,2.488
0.886,16.27,-2.36,-1.927,0.839,1.41
0.74,20.552,-4.787,-1.075,-0.345,0.17
0.442,17.056,-5.178,0.193,-3.838,-1.601
-8.296,3.024,-4.95,0.766,-4.413,-2.827
-7.743,0.181,-2.524,1.37,-3.039,-2.209
-7.408,-9.155,-0.523,1.92,-3.052,-0.871
-9.489,-13.152,1.668,1.942,-2.442,-0.421
-9.026,-13.879,2.187,1.851,-0.191,-0.139
-4.898,-13.3,2.261,1.571,1.166,-0.058
-4.058,-12.232,2.111,1.144,1.01,-0.112
-4.088,-10.338,1.329,0.749,1.021,-0.288
-3.468,-9.705,1.068,0.415,1.021,-0.36
-3.672,-9.646,0.447,0.151,0.514,-0.47
-3.763,-10.089,0.465,-0.127,0.318,-0.564
-3.694,-10.824,0.252,-0.493,0.051,-0.762
-3.258,-11.928,-0.219,-0.982,-0.016,-1.019
-2.038,-13.658,-0.973,-1.544,0.236,-1.29
0.008,-16.91,-0.732,-1.993,0.602,-1.491
1.014,-18.333,-0.959,-2.26,1.074,-1.215
1.733,-17.467,-0.419,-2.428,2.384,0.191
3.187,-10.668,1.132,-3.752,4.091,2.281
2.787,-1.25,0.93,-3.041,2.2,2.654
1.102,5.224,-1.128,-2.509,1.493,2.431
0.175,12.717,-1.814,-1.772,0.983,1.474
1.123,15.027,-3.698,-1.115,-1.629,-0.244
-3.26,10.283,-4.785,0.831,-5.121,-2.533
-6.282,2.869,-4.274,0.878,-4.05,-2.89
-7.301,-1.345,-2.638,1.233,-3.843,-2.501
-7.408,-8.179,-1.419,1.349,-3.733,-1.687
-9.116,-11.452,-0.126,1.478,-2.274,-1.135
-6.259,-13.152,0.214,1.531,-0.148,-0.624
-3.533,-13.506,0.503,1.495,0.694,-0.349
-2.395,-12.395,0.612,1.226,0.877,-0.272
-2.091,-11.383,0.211,0.887,0.984,-0.259
-1.956,-10.812,0.356,0.58,0.814,-0.285
-2.197,-10.538,0.013,0.258,0.503,-0.312
-2.686,-10.888,-0.204,-0.098,0.08,-0.371
-2.701,-11.732,-0.601,-0.563,0.18,-0.42
-2.353,-13.294,-1.346,-1.136,0.532,-0.515
-1.166,-15.524,-1.424,-1.789,1.169,-0.635
-0.845,-17.563,-2.133,-2.368,1.439,-0.76
-0.443,-18.386,-1.549,-2.501,2.485,-0.239
0.397,-16.444,1.263,-2.982,4.075,1.099
7.8,2.809,0.955,-4.23,5.01,2.853
5.674,8.498,2.777,-2.828,2.692,2.48
4.518,16.204,2.494,-2.051,0.607,0.918
3.14,21.105,0.095,-1.543,-0.74,-0.016
2.89,19.64,-2.995,-0.518,-3.809,-1.784
-8.225,2.161,-3.064,1.585,-6.225,-3.706
-8.3,-1.678,-5.137,1.295,-4.265,-3.179
-7.831,-8.351,-3.531,1.674,-2.292,-1.327
-6.695,-12.338,-1.323,1.881,-2.08,-0.844
-7.89,-12.444,-0.184,1.985,-0.366,-0.302
-4.173,-12.701,1.113,1.839,0.914,-0.01
-2.892,-12.486,1.538,1.484,0.671,-0.007
-2.798,-11.252,0.75,1.044,0.527,-0.129
-2.823,-10.998,0.608,0.641,0.713,-0.117
-2.831,-10.603,0.17,0.247,0.321,-0.17
-3.277,-10.665,0.035,-0.147,0.131,-0.243
-3.583,-10.699,-0.242,-0.534,0.049,-0.363
-3.144,-11.311,-0.451,-0.979,0.078,-0.535
-2.917,-12.559,-1.324,-1.455,0.385,-0.78
-1.365,-14.438,-2.073,-1.808,0.997,-1.002
-0.055,-16.836,-2.185,-2.03,1.594,-1.02
1.256,-17.487,-1.527,-2.135,2.385,-0.331
1.489,-13.614,-2.004,-2.392,3.738,1.312
6.633,2.835,0.938,-3.301,3.629,3.333
4.004,8.101,0.778,-2.473,1.473,3.201
3.903,15.012,-1.308,-1.91,0.943,2.606
4.632,19.792,-3.113,-1.309,-0.313,1.645
3.018,20.366,-2.944,-0.278,-3.524,-0.726
-4.448,7.132,-5.478,1.199,-4.927,-2.84
-5.149,4.236,-4.478,0.99,-4.367,-2.962
-7.419,-0.903,-2.147,1.028,-4.571,-2.503
-9.523,-6.183,-0.35,1.115,-4.029,-2.235
-8.134,-10.915,0.398,1.067,-2.041,-1.369
-5.056,-13.685,1.182,1.297,-0.31,-0.969
-2.017,-14.639,1.375,1.378,1.045,-0.401
-0.432,-14.035,1.415,1.289,1.099,-0.148
-0.205,-12.827,1.079,0.99,1.161,0.016
-0.48,-12.167,1.093,0.546,0.862,0.046
-1.448,-11.678,0.832,-0.003,0.315,-0.027
-2.474,-11.817,0.335,-0.651,0.005,-0.133
-2.745,-12.981,-0.727,-1.325,0.269,-0.301
-2.124,-15.831,-0.69,-2.042,1.037,-0.568
-0.533,-18.674,-0.754,-2.586,1.738,-0.932
-0.153,-19.225,0.075,-2.863,2.336,-0.61
0.559,-15.722,0.827,-3.117,3.946,0.838
6.394,0.685,3.1,-4.297,4.684,2.746
5.327,8.624,4.113,-3.021,2.142,2.895
4.2,15.592,2.283,-2.194,0.17,2.208
2.89,21.523,-0.104,-1.228,-0.767,1.369
3.008,20.735,-1.672,-0.28,-3.643,-0.403
-6.454,7.253,-2.712,1.905,-6.391,-2.632
-8.071,1.475,-3.592,1.578,-4.532,-2.815
-8.325,-3.629,-0.981,1.707,-3.227,-1.795
-8.02,-9.696,0.629,1.545,-3.286,-1.318
-8.394,-12.414,2.05,1.516,-1.625,-0.928
-4.397,-14.284,1.867,1.264,0.396,-0.516
-2.067,-13.459,1.627,1.138,0.431,-0.299
-1.804,-12.32,0.878,0.917,0.598,-0.291
-1.194,-11.315,0.798,0.656,0.966,-0.251
-1.388,-10.826,0.499,0.334,0.456,-0.269
-2.2,-10.776,0.404,-0.025,0.058,-0.236
-2.55,-11.216,0.26,-0.452,-0.18,-0.232
-2.762,-12.351,-0.312,-1.041,-0.175,-0.304
-2.199,-14.453,-1.054,-1.712,0.36,-0.483
-0.984,-18.162,-1.177,-2.367,0.933,-0.863
0.158,-20.062,-1.263,-2.667,1.514,-0.925
1.184,-18.907,-0.088,-2.811,2.746,0.323
3.477,-7.867,0.987,-4.064,4.344,2.184
3.238,1.161,3.5,-3.096,2.298,2.521
2.044,7.789,1.367,-2.34,1.239,2.214
0.977,14.929,0.259,-1.682,1.193,1.769
2.192,16.63,-2.308,-1.03,-0.934,0.281
-2.613,9.259,-3.829,1.126,-4.386,-1.79
-5.126,3.236,-6.189,1.109,-3.77,-2.022
-7.015,0.277,-3.561,1.481,-3.799,-1.379
-8.072,-5.471,-1.866,1.68,-4.573,-0.939
-10.938,-8.923,0.161,1.722,-3.889,-0.795
-8.751,-11.925,1.409,1.498,-1.991,-0.648
-6.359,-13.163,2.202,1.282,-0.878,-0.73
-4.207,-12.943,1.825,0.9,-0.025,-0.819
-2.849,-12.083,1.23,0.536,0.504,-0.837
-1.818,-10.91,0.772,0.274,0.847,-0.722
-1.737,-10.467,0.504,0.018,0.576,-0.58
-1.941,-10.503,0.146,-0.237,0.415,-0.44
-2.059,-11.542,-0.515,-0.575,0.352,-0.402
-1.398,-13.762,-1.105,-1.007,0.61,-0.48
-0.287,-17.046,-0.703,-1.569,0.961,-0.718
0.606,-19.38,-0.562,-2.111,1.195,-0.878
1.206,-19.686,0.76,-2.296,2.413,-0.062
2.159,-15.207,2.226,-2.95,3.946,1.755
4.705,0.864,1.459,-2.83,3.219,2.588
3.277,5.482,-0.553,-2.344,2.375,2.69
3.723,13.118,-2.444,-1.571,2.59,2.272
5.317,16.818,-5.312,-1.068,1.059,1.243
3.05,17.24,-8.314,0.252,-1.514,-0.942
-1.06,6.436,-8.178,0.863,-2.411,-1.844
-3.785,5.49,-5.898,1.178,-3.707,-1.914
-6.921,-0.758,-3.687,1.161,-4.915,-1.54
-9.973,-4.928,-1.892,1.356,-4.549,-1.491
-7.789,-10.188,0.027,1.36,-3.541,-1.077
-6.832,-14.199,1.196,1.316,-2.245,-0.944
-3.697,-14.943,0.205,1.251,-0.361,-0.826
-1.473,-14.055,-0.187,1.193,0.645,-0.686
-0.611,-12.815,-0.443,0.88,0.667,-0.553
-1.414,-11.551,-0.058,0.47,0.434,-0.537
-1.706,-11.015,0.055,0.043,0.279,-0.45
-2.159,-11.119,0.21,-0.384,0.071,-0.418
-2.171,-11.822,-0.235,-0.87,0.033,-0.476
-0.928,-14.227,-0.788,-1.467,0.385,-0.558
0.978,-17.707,-0.613,-2.182,0.794,-0.782
1.541,-19.797,-0.143,-2.539,1.311,-0.562
2.137,-18.321,1.163,-2.806,2.912,0.907
7.555,-2.875,2.293,-4.151,4.526,2.811
4.821,5.193,5.772,-3.104,2.346,2.822
2.304,13.332,3.509,-2.15,1.214,1.87
1.494,21.29,1.695,-1.089,0.633,0.946
2.153,21.051,-0.567,-0.314,-2.125,-0.823
-6.471,6.994,-1.681,1.763,-5.47,-2.938
-6.645,1.174,-4.648,1.649,-3.679,-2.805
-6.635,-4.622,-1.688,1.973,-2.89,-1.49
-6.724,-11.15,-0.009,1.765,-3.174,-0.796
-8.069,-12.663,1.545,1.756,-1.662,-0.414
-4.638,-13.535,2.102,1.634,0.101,-0.147
-2.837,-13.517,2.138,1.417,0.02,-0.222
-2.5,-12.2,0.946,1.027,0.096,-0.329
-2.26,-11.24,0.583,0.708,0.524,-0.275
-2.232,-10.767,0.308,0.413,0.238,-0.262
-2.984,-10.531,0.301,0.045,-0.033,-0.229
-3.054,-10.643,0.414,-0.363,-0.165,-0.237
-3.145,-11.46,0.374,-0.867,-0.34,-0.361
-2.599,-12.85,-0.467,-1.423,-0.15,-0.545
-1.677,-14.937,-1.002,-1.911,0.451,-0.774
-0.042,-17.384,-1.45,-2.223,1.03,-0.87
0.367,-18.609,-0.692,-2.268,1.784,-0.298
1.384,-16.058,0.331,-2.476,3.358,1.376
7.342,2.984,2.033,-3.676,3.458,3.31
4.636,7.812,0.525,-2.53,1.127,2.803
3.404,15.949,-1.345,-1.982,0.242,1.625
3.749,21.498,-3.625,-1.441,-0.635,0.601
2.333,21.739,-4.809,-0.684,-3.817,-1.6
-7.164,4.5,-6.077,1.188,-5.089,-3.618
-6.561,1.716,-3.907,0.885,-3.622,-3.021
-7.339,-5.252,-1.3,1.109,-3.627,-1.86
-8.692,-10.265,0.189,1.12,-3.49,-1.462
-8.282,-12.632,0.824,1.212,-1.372,-0.904
-4.568,-13.188,1.433,1.277,-0.055,-0.746
-2.885,-13.116,1.262,1.15,0.54,-0.681
-1.914,-11.723,0.848,0.982,1.171,-0.558
-1.154,-10.96,1.094,0.809,1.565,-0.421
-0.791,-10.879,1.049,0.541,1.168,-0.341
-1.419,-11.216,0.944,0.194,0.746,-0.313
-1.868,-11.667,0.523,-0.265,0.587,-0.353
-1.527,-12.431,-0.017,-0.807,0.707,-0.439
-0.687,-13.781,-0.811,-1.4,0.832,-0.586
0.566,-15.458,-1.212,-1.924,1.172,-0.714
1.895,-16.747,-1.3,-2.255,1.635,-0.55
2.696,-16.548,-0.722,-2.361,1.989,0.199
2.198,-13.148,-0.287,-2.51,2.9,1.662
4.481,2.825,-0.983,-3.742,3.081,3.342
2.135,8.116,-1.334,-2.568,1.004,3.281
-0.102,13.384,-3.471,-1.834,-0.434,1.85
-0.245,18.541,-5.127,-1.362,-0.341,0.991
0.91,18.5,-6.201,-0.448,-2.996,-0.981
-5.131,5.732,-4.762,1.614,-5.29,-3.047
-6.382,2.291,-3.707,1.219,-4.146,-3.226
-5.732,-2.18,-0.456,1.31,-3.2,-2.044
-6.38,-7.623,1.104,1.49,-3.937,-1.879
-7.815,-11.296,2.357,1.378,-2.2,-1.157
-4.688,-13.633,2.367,1.242,-0.156,-0.541
-2.667,-13.777,1.963,1.1,0.604,-0.085
-2.252,-12.783,1.208,0.807,0.931,0.129
-2.462,-12.006,1.176,0.577,1.095,0.199
-2.402,-10.959,1.416,0.3,0.783,0.094
-3.197,-10.337,1.319,0.031,0.546,-0.018
-3.19,-10.279,1.418,-0.234,0.324,-0.142
-3.349,-10.558,0.895,-0.578,0.153,-0.267
-3.277,-11.585,0.107,-0.992,0.264,-0.38
-2.512,-14.001,-0.95,-1.511,0.997,-0.527
-0.425,-17.568,-0.909,-2.129,1.493,-0.845
0.352,-19.105,-0.657,-2.461,2.26,-0.624
1.223,-17.018,-0.076,-2.771,3.488,0.589
3.515,-6.75,1.461,-4.128,4.975,2.449
3.679,2.924,1.222,-3.256,3.506,2.988
4.345,8.107,0.075,-2.591,2.724,2.695
2.4,16.013,-2.67,-1.534,1.016,1.688
2.452,16.556,-5.035,-0.782,-0.756,0.486
-1.402,10.428,-6.305,1.382,-4.148,-2.148
-5.283,3.617,-5.245,1.136,-4.408,-2.875
-8.72,2.295,-3.962,1.297,-4.628,-2.647
-7.837,-5.097,-1.498,0.906,-3.964,-2.102
-8.452,-8.469,0.309,0.979,-3.344,-2.189
-5.892,-12.297,0.542,0.798,-1.256,-1.373
-2.008,-13.191,0.225,0.895,-0.124,-1.02
-0.731,-13.659,-0.308,0.87,0.548,-0.536
0.041,-12.482,-0.6,0.755,1.015,-0.152
-0.361,-11.51,-0.498,0.523,0.83,0.041
-1.218,-11.032,-0.355,0.211,0.439,0.092
-2.365,-10.683,-0.393,-0.119,0.162,0.051
-2.516,-10.98,-0.466,-0.476,-0.037,-0.073
-2.747,-12.035,-1.19,-0.903,-0.0,-0.249
-1.765,-14.083,-1.921,-1.382,0.674,-0.406
-0.339,-16.952,-2.26,-1.951,1.461,-0.468
0.343,-18.224,-2.097,-2.239,2.365,-0.107
1.044,-16.845,-0.978,-2.622,3.802,1.07
3.245,-8.459,0.194,-3.878,5.285,2.776
3.933,2.583,-0.25,-3.068,4.1,3.321
4.377,6.217,-1.246,-2.501,3.182,2.923
4.749,12.834,-2.928,-1.776,1.681,2.308
4.579,15.685,-4.642,-0.855,-1.3,0.421
-1.333,12.486,-4.839,1.042,-4.728,-2.274
-4.059,3.793,-3.469,0.647,-4.967,-3.331
-6.546,2.919,-2.407,0.743,-5.591,-3.265
-8.102,-3.273,-1.27,0.696,-4.732,-3.183
-7.691,-8.51,-0.851,0.739,-3.04,-2.39
-3.986,-13.674,-1.217,0.755,-1.049,-1.223
-2.287,-14.185,-1.456,0.999,-0.089,-0.509
-1.634,-13.953,-1.257,1.103,0.887,-0.031
-0.936,-12.914,-0.657,0.942,0.813,0.218
-2.065,-11.494,-0.054,0.642,0.643,0.207
-2.619,-10.559,0.19,0.333,0.399,0.098
-3.372,-10.498,0.136,0.035,0.238,-0.045
-3.684,-10.805,-0.147,-0.332,0.178,-0.213
-3.607,-11.541,-0.72,-0.734,0.376,-0.378
-2.929,-12.728,-1.458,-1.212,1.011,-0.537
-0.88,-15.083,-1.41,-1.694,1.714,-0.691
0.364,-16.974,-1.911,-2.008,2.04,-0.724
0.524,-17.307,-1.265,-2.176,2.755,-0.209
0.388,-14.475,-0.844,-2.56,4.245,1.02
3.889,-3.741,1.362,-3.849,5.222,2.782
2.551,4.551,2.22,-3.047,2.854,3.165
2.511,8.789,1.212,-2.521,2.738,2.476
2.884,16.242,-0.597,-1.679,1.424,1.42
4.403,16.294,-2.082,-0.674,-1.509,0.109
-1.782,8.676,-4.357,1.463,-4.876,-1.965
-4.226,3.088,-5.528,1.399,-4.087,-2.298
-6.873,0.172,-3.754,1.614,-4.872,-1.646
-7.83,-7.65,-2.28,1.43,-4.694,-1.156
-9.911,-10.252,-0.943,1.404,-3.535,-1.159
-7.464,-12.581,-0.236,1.254,-1.499,-0.889
-5.145,-12.883,-0.128,1.241,-0.52,-0.953
-3.119,-12.293,-0.373,1.051,0.288,-0.942
-2.248,-11.327,-0.498,0.868,0.681,-0.873
-1.429,-10.955,-0.16,0.596,0.812,-0.708
-1.66,-10.572,-0.079,0.283,0.47,-0.581
-1.83,-10.861,-0.033,-0.095,0.309,-0.479
-1.956,-11.564,-0.683,-0.478,0.2,-0.506
-1.011,-13.214,-1.212,-0.883,0.716,-0.579
0.812,-16.742,-0.777,-1.398,1.163,-0.732
1.279,-19.021,-1.126,-1.815,1.569,-0.725
1.653,-18.929,-0.215,-2.148,2.757,0.049
2.207,-15.008,0.71,-3.013,4.378,1.491
6.935,0.198,0.568,-3.781,4.365,2.661
4.984,5.096,-0.698,-2.919,2.069,2.595
4.731,12.417,-2.405,-2.238,1.632,2.072
6.256,16.049,-4.702,-1.627,0.143,1.184
4.576,16.796,-5.55,-0.197,-3.35,-0.966
-3.829,5.327,-6.122,0.937,-4.566,-2.211
-4.747,4.694,-5.685,0.723,-3.718,-2.266
-7.104,-0.441,-3.651,0.679,-4.27,-1.846
-9.761,-5.149,-2.212,0.748,-4.244,-1.655
-9.637,-9.403,-1.989,0.705,-2.494,-0.841
-7.077,-11.804,-0.67,0.964,-1.697,-0.635
-6.278,-12.729,-0.405,1.078,-0.799,-0.408
-4.396,-12.649,-0.527,1.096,0.062,-0.344
-3.631,-11.263,-0.538,1.028,0.507,-0.437
-2.837,-10.88,-0.116,0.807,0.584,-0.489
-2.937,-10.756,-0.085,0.459,0.43,-0.573
-3.05,-10.854,-0.082,0.042,0.525,-0.606
-2.824,-11.423,-0.352,-0.407,0.548,-0.682
-2.255,-12.734,-0.9,-0.914,0.851,-0.854
-0.593,-14.593,-0.886,-1.394,1.256,-1.102
1.072,-17.236,-1.018,-1.825,1.582,-1.261
2.215,-18.846,-0.196,-2.106,2.261,-0.781
3.689,-16.657,0.501,-2.748,3.542,0.698
9.553,-0.656,2.507,-4.101,3.573,2.717
5.4,6.852,3.275,-2.856,1.341,2.634
4.035,13.258,1.751,-2.134,0.493,1.815
2.591,19.993,-0.23,-1.353,-0.084,1.032
2.623,20.497,-1.523,-0.215,-2.713,-0.927
-6.245,6.802,-3.515,1.701,-4.891,-3.088
-5.337,1.231,-4.484,1.047,-3.835,-2.865
-6.488,-3.487,-2.694,1.01,-3.774,-1.799
-6.74,-9.299,-1.913,0.854,-4.427,-1.411
-9.177,-11.8,-1.214,0.85,-3.045,-0.798
-6.491,-12.951,-0.521,0.847,-0.959,-0.406
-4.964,-13.077,-0.161,0.817,-0.241,-0.248
-4.234,-11.603,-0.377,0.705,0.363,-0.246
-3.513,-10.536,0.133,0.594,0.968,-0.203
-2.995,-10.108,0.182,0.392,0.753,-0.197
-3.527,-10.123,-0.031,0.144,0.481,-0.264
-3.811,-10.317,-0.557,-0.142,0.536,-0.397
-3.622,-11.155,-1.056,-0.49,0.84,-0.558
-2.692,-12.521,-1.832,-0.88,1.452,-0.748
-0.62,-14.671,-1.732,-1.296,1.98,-0.946
0.865,-17.085,-1.883,-1.717,2.154,-1.006
1.594,-17.464,-1.451,-1.978,2.528,-0.584
2.357,-15.52,-0.806,-2.263,3.302,0.563
3.638,-7.994,-0.82,-3.139,3.818,2.076
4.24,3.53,-1.743,-3.029,2.71,2.843
2.964,7.955,-2.907,-2.429,1.608,2.731
3.291,13.957,-4.561,-1.688,0.921,1.588
3.831,16.62,-6.371,-0.69,-1.094,0.274
1.147,12.282,-5.833,0.836,-4.118,-1.688
-4.657,3.104,-4.242,1.235,-5.345,-2.612
-6.125,1.14,-2.659,1.302,-4.744,-2.675
-7.249,-5.43,-1.136,1.228,-4.401,-1.931
-7.844,-10.844,0.422,1.07,-3.396,-1.464
-7.079,-13.276,0.289,1.043,-1.702,-0.741
-3.378,-13.804,-0.37,1.138,0.175,-0.241
-2.355,-13.652,-0.658,1.071,0.368,0.121
-2.12,-12.563,-0.588,0.865,0.411,0.313
-3.215,-11.272,-0.229,0.535,0.19,0.156
-3.632,-10.89,0.102,0.096,0.261,-0.002
-4.055,-10.851,0.06,-0.355,0.218,-0.243
-3.528,-11.914,-0.574,-0.839,0.52,-0.475
-2.442,-14.221,-1.189,-1.319,1.063,-0.787
-0.161,-17.826,-0.994,-1.885,1.602,-1.177
0.744,-19.409,-0.778,-2.151,1.995,-1.039
2.255,-18.297,0.546,-2.528,3.278,0.267
5.744,-8.475,1.308,-3.889,4.774,2.226
4.234,1.692,4.381,-2.88,2.329,2.767
1.509,8.013,2.175,-2.138,1.279,2.075
-0.395,16.248,0.939,-1.232,1.309,1.377
0.497,15.77,-1.527,-0.417,-0.763,-0.139
-6.374,8.161,-1.959,1.655,-4.1,-2.316
-6.972,-0.156,-4.554,1.351,-2.591,-2.557
-6.86,-3.486,-1.736,1.579,-2.467,-1.379
-5.683,-10.92,-0.515,1.427,-3.262,-0.648
-8.222,-11.965,0.639,1.611,-2.473,-0.178
-4.468,-13.698,1.053,1.628,-0.758,0.322
-3.475,-13.245,1.213,1.648,-0.439,0.345
-2.909,-12.724,0.36,1.445,-0.128,0.292
-3.441,-11.806,0.328,1.146,0.27,0.2
-3.532,-11.25,0.639,0.693,0.185,0.03
-4.057,-10.971,0.883,0.133,0.093,-0.132
-4.249,-11.14,0.97,-0.477,-0.014,-0.335
-4.137,-11.581,0.959,-1.084,0.196,-0.556
-3.776,-12.323,0.678,-1.664,0.389,-0.856
-2.711,-13.438,0.292,-2.161,0.81,-1.127
-1.385,-15.442,-0.18,-2.539,1.225,-1.313
-0.421,-16.62,-1.135,-2.566,1.678,-1.03
0.435,-15.599,-0.52,-2.614,2.695,0.257
3.491,-6.26,-1.022,-3.814,4.205,2.316
1.79,0.886,2.936,-2.789,2.027,2.909
-1.277,6.056,1.623,-2.078,0.442,1.717
-2.952,14.246,1.404,-1.204,0.393,1.056
-1.81,14.703,-0.009,-0.341,-1.556,-0.375
-7.604,5.86,1.19,1.706,-5.049,-2.531
-8.467,-0.739,-2.029,1.578,-2.955,-2.729
-6.622,-5.021,0.567,1.868,-1.705,-1.21
-5.127,-12.633,2.14,1.602,-2.205,-0.61
-7.544,-13.79,2.787,1.479,-1.049,-0.205
-3.762,-13.713,2.481,1.354,0.97,0.262
-2.079,-13.074,1.801,1.168,0.517,0.211
-2.404,-11.832,0.783,0.819,0.482,0.172
-3.131,-11.253,0.401,0.497,0.621,0.059
-3.111,-11.279,0.467,0.003,0.268,-0.114
-4.233,-11.5,0.043,-0.561,0.172,-0.353
-3.81,-12.226,-0.166,-1.171,0.508,-0.631
-3.013,-13.5,-0.552,-1.825,0.761,-1.007
-1.3,-15.47,-0.571,-2.331,1.168,-1.317
-0.078,-16.703,-0.952,-2.586,1.243,-1.321
0.162,-16.146,-0.9,-2.551,1.703,-0.642
0.172,-13.187,-0.599,-2.669,3.22,0.831
6.283,0.098,-0.554,-3.767,3.587,2.944
2.456,8.617,1.393,-2.357,1.418,2.982
0.898,13.329,0.133,-1.748,1.115,2.113
0.701,20.714,-0.304,-0.915,0.134,1.01
1.054,19.84,-0.308,-0.104,-3.258,-0.847
-9.248,7.591,0.714,1.729,-5.703,-3.07
-7.883,0.513,-1.196,1.201,-3.343,-2.725
-6.512,-4.705,0.914,1.471,-2.732,-1.616
-6.029,-13.277,1.467,1.247,-2.412,-0.945
-6.604,-14.975,1.426,1.203,-0.375,-0.235
-2.752,-14.435,0.612,1.2,1.572,0.301
-1.815,-13.545,0.287,1.02,1.052,0.364
-2.825,-11.535,-0.261,0.725,0.732,0.284
-3.504,-10.565,-0.342,0.417,0.787,0.163
-4.094,-10.293,-0.371,0.084,0.445,-0.052
-4.746,-10.769,-0.534,-0.331,0.393,-0.362
-4.823,-11.677,-0.848,-0.808,0.637,-0.793
-3.885,-12.862,-1.54,-1.286,1.165,-1.242
-1.747,-15.115,-1.158,-1.702,1.869,-1.567
-0.011,-16.505,-1.233,-2.079,2.008,-1.68
0.687,-16.082,-0.941,-2.298,2.398,-1.127
1.124,-12.818,-0.386,-2.643,3.421,0.141
3.31,-4.42,0.65,-3.89,4.499,1.924
4.939,5.782,-0.603,-3.322,2.807,2.768
5.331,9.751,-1.773,-2.546,0.952,2.171
3.573,16.987,-2.227,-1.83,-0.887,0.63
2.913,17.843,-3.601,-0.798,-3.66,-0.771
-2.424,10.975,-2.282,1.074,-7.08,-2.741
-7.601,2.168,-1.05,1.244,-6.035,-3.388
-8.872,-3.081,0.595,1.531,-3.742,-2.436
-6.494,-11.956,1.175,1.741,-2.412,-1.055
-5.84,-15.542,2.459,1.641,-0.992,-0.51
-3.181,-15.806,0.609,1.567,0.903,0.127
-1.836,-14.683,0.186,1.424,0.783,0.303
-2.671,-11.835,-0.023,0.957,0.149,0.189
-4.281,-10.208,-0.053,0.495,0.224,-0.012
-4.764,-9.724,0.093,0.155,0.252,-0.177
-5.212,-9.684,0.325,-0.164,0.133,-0.312
-5.171,-9.93,0.354,-0.522,0.197,-0.438
-4.809,-10.229,0.108,-0.902,0.351,-0.578
-4.136,-10.913,-0.572,-1.29,0.407,-0.755
-3.671,-11.994,-1.543,-1.693,0.731,-0.922
-1.988,-14.021,-2.015,-2.147,1.412,-1.105
0.001,-15.836,-2.889,-2.424,1.883,-1.157
0.765,-16.306,-2.589,-2.426,2.429,-0.58
0.615,-13.247,-2.337,-2.542,3.961,0.937
7.212,4.893,0.58,-3.772,5.055,2.947
7.296,10.086,2.323,-3.03,2.598,3.375
4.0,16.63,2.232,-2.204,0.347,1.924
2.765,22.405,0.181,-1.598,-0.214,1.023
4.544,21.011,0.084,-0.863,-3.022,-0.746
-4.839,3.545,-1.431,1.063,-6.222,-2.803
-8.192,-0.37,-2.956,1.316,-4.682,-2.926
-6.719,-6.789,-1.812,1.497,-2.821,-1.212
-6.32,-12.781,-0.021,1.64,-3.256,-0.706
-8.441,-14.503,0.291,1.745,-1.853,-0.277
-5.615,-14.274,-0.136,1.765,0.195,-0.058
-3.468,-13.518,-0.013,1.484,0.534,-0.141
-3.454,-11.733,0.029,1.036,0.593,-0.232
-3.339,-10.665,0.318,0.582,0.854,-0.283
-3.374,-10.026,0.482,0.152,0.513,-0.322
-3.815,-10.203,0.246,-0.266,0.307,-0.383
-4.183,-10.855,0.03,-0.712,0.192,-0.513
-3.682,-12.198,-0.97,-1.288,0.365,-0.669
-2.712,-14.595,-1.542,-1.956,0.886,-0.937
-1.02,-16.734,-1.813,-2.54,1.545,-1.184
-0.315,-17.388,-1.457,-2.812,2.062,-1.007
0.218,-15.791,-0.436,-2.962,3.198,-0.06
1.328,-10.063,0.625,-3.795,4.598,1.642
6.683,5.816,0.145,-3.597,4.059,2.572
6.862,9.849,-0.995,-2.693,1.708,2.341
3.471,17.944,-1.241,-2.0,-0.651,0.615
2.622,20.063,-3.604,-1.306,-1.918,-0.462
1.859,15.89,-3.554,0.316,-5.223,-2.49
-7.585,1.323,-2.787,1.039,-6.613,-3.472
-9.945,-2.184,-1.477,1.387,-4.261,-3.021
-5.666,-11.083,-0.852,1.694,-1.951,-1.177
-4.63,-15.122,1.152,1.841,-1.873,-0.868
-5.168,-15.418,0.86,1.817,0.056,-0.362
-1.57,-14.41,1.083,1.781,1.642,0.007
-0.593,-12.912,1.27,1.344,1.104,0.153
-2.148,-11.273,0.907,0.847,0.578,0.008
-2.69,-10.491,0.711,0.421,0.511,0.017
-2.978,-10.658,0.875,-0.014,0.054,-0.038
-3.37,-11.115,0.646,-0.506,-0.192,-0.151
-3.42,-11.707,0.135,-1.076,-0.239,-0.32
-3.186,-12.807,-0.756,-1.663,0.065,-0.538
-2.583,-13.856,-1.438,-2.214,0.63,-0.767
-1.528,-16.239,-1.735,-2.708,1.178,-0.968
-0.939,-17.688,-1.508,-2.835,1.823,-0.823
0.071,-16.282,-0.133,-2.869,2.677,0.257
1.304,-4.242,-1.592,-3.983,4.083,2.224
2.247,3.174,2.243,-2.998,1.924,2.888
-1.567,9.656,1.154,-2.043,-0.271,1.386
-1.93,16.788,-0.151,-1.401,0.019,1.249
-0.783,16.149,-1.717,-0.539,-1.968,-0.093
-4.355,4.834,-0.018,1.476,-5.397,-1.788
-7.716,-3.038,-3.477,1.634,-3.848,-1.841
-5.85,-8.027,-1.542,1.98,-1.843,0.214
-6.024,-13.789,0.306,2.195,-2.781,0.376
-8.726,-13.826,0.891,2.151,-1.342,0.785
-5.957,-13.323,1.364,2.065,0.394,0.721
-4.611,-11.692,1.559,1.735,0.488,0.325
-4.151,-10.409,0.915,1.191,0.144,-0.022
-4.49,-9.83,0.452,0.693,0.249,-0.108
-4.492,-9.872,0.484,0.186,-0.091,-0.138
-5.294,-10.148,0.655,-0.364,-0.16,-0.21
-5.42,-10.685,0.711,-0.969,-0.113,-0.399
-5.273,-11.732,0.671,-1.597,0.101,-0.756
-4.798,-12.918,0.049,-2.136,0.504,-1.286
-2.841,-15.279,-0.321,-2.532,1.086,-1.725
-1.886,-16.324,-0.923,-2.581,1.727,-1.716
-0.559,-15.798,-0.598,-2.555,2.822,-0.769
1.065,-11.568,-0.464,-2.993,4.036,1.049
5.673,6.141,-0.498,-3.293,3.443,2.663
4.314,10.435,-2.919,-2.519,1.128,2.878
1.586,18.706,-4.495,-1.838,-0.247,1.308
1.777,23.034,-6.295,-1.007,-1.401,0.045
0.787,20.284,-5.781,0.249,-4.308,-1.928
-6.282,3.223,-4.74,1.279,-5.323,-3.222
-7.145,-0.65,-1.506,1.448,-3.443,-2.765
-4.833,-9.584,0.645,1.476,-2.371,-0.805
-6.067,-14.709,1.579,1.359,-2.439,-0.145
-6.608,-15.423,0.827,1.345,-0.49,0.501
-4.482,-14.739,0.143,1.431,0.755,0.717
-3.734,-12.552,-0.418,1.179,0.674,0.546
-4.59,-10.439,-0.69,0.883,0.38,0.26
-4.73,-9.591,-0.144,0.523,0.472,0.098
-4.943,-9.569,-0.003,0.119,0.128,-0.109
-5.165,-9.91,0.128,-0.341,0.132,-0.314
-5.027,-10.732,-0.069,-0.818,0.143,-0.651
-4.633,-12.195,-0.487,-1.32,0.302,-1.116
-2.85,-15.019,-0.397,-1.77,0.996,-1.563
-0.792,-17.676,-0.34,-2.01,1.117,-1.723
0.331,-17.54,0.157,-2.103,1.92,-0.741
0.977,-13.732,0.929,-2.651,3.602,1.139
6.485,3.121,1.154,-2.883,3.39,2.722
4.65,8.121,-0.935,-2.198,1.626,2.85
2.98,18.11,-3.117,-1.34,1.093,2.051
3.514,22.107,-4.522,-0.437,-0.471,0.579
2.481,20.0,-4.785,0.782,-3.964,-1.676
-5.244,4.716,-4.483,1.595,-4.868,-3.158
-5.199,1.724,-2.269,1.66,-3.975,-2.746
-5.861,-6.987,0.754,1.474,-3.746,-1.496
-7.454,-11.832,1.723,1.187,-3.061,-0.651
-7.063,-13.817,1.71,1.124,-0.956,0.128
-4.652,-14.051,1.645,1.21,0.044,0.471
-4.305,-13.313,1.44,1.134,0.481,0.419
-3.661,-11.788,0.807,0.963,0.72,0.253
-3.831,-10.927,0.969,0.69,0.819,0.081
-4.161,-10.029,0.89,0.335,0.451,-0.074
-4.854,-10.293,0.939,-0.126,0.495,-0.187
-5.095,-10.758,0.818,-0.689,0.528,-0.351
-5.389,-11.72,0.429,-1.307,0.811,-0.638
-4.5,-12.813,-0.056,-1.884,1.332,-1.036
-2.977,-14.561,-0.216,-2.307,1.813,-1.42
-1.344,-15.275,-0.698,-2.511,2.102,-1.461
-0.032,-14.671,-0.741,-2.499,2.731,-0.561
1.629,-10.188,-0.787,-2.932,3.747,1.28
5.686,6.59,-0.312,-2.691,2.43,2.612
4.537,8.34,-3.016,-2.313,0.213,2.598
0.316,17.889,-4.32,-1.798,-0.325,1.314
0.7,21.468,-5.563,-1.02,-1.596,0.158
-1.612,17.583,-4.578,0.248,-4.75,-1.817
-9.573,2.157,-4.104,0.887,-4.3,-2.878
-9.989,0.183,-0.122,1.463,-2.25,-2.284
-6.835,-9.807,2.828,1.746,-2.136,-0.692
-8.735,-13.998,4.471,1.631,-1.486,-0.259
-7.032,-14.15,4.223,1.498,0.672,0.172
-3.767,-14.232,3.607,1.36,0.99,0.284
-3.485,-12.158,2.559,1.042,0.752,0.136
-3.855,-10.72,1.595,0.701,0.813,-0.046
-3.714,-10.074,1.496,0.305,0.438,-0.118
-4.738,-9.617,1.073,-0.096,0.032,-0.192
-4.943,-10.014,1.198,-0.559,-0.005,-0.252
-5.173,-10.746,1.201,-1.075,0.014,-0.467
-4.997,-12.056,1.162,-1.649,0.026,-0.878
-4.621,-13.949,0.958,-2.169,0.418,-1.437
-3.11,-16.096,0.659,-2.511,0.973,-1.859
-1.931,-16.782,0.454,-2.546,1.627,-1.518
-0.968,-14.188,0.426,-2.762,3.095,0.062
4.326,-0.747,1.255,-3.944,4.136,2.237
3.331,6.522,1.626,-2.742,2.111,2.862
1.128,12.606,-0.453,-1.809,0.901,1.901
1.024,19.985,-1.036,-0.949,0.074,1.278
1.375,19.001,-1.268,0.067,-3.108,-0.655
-6.448,6.896,-0.969,2.01,-5.949,-2.891
-7.085,0.479,-1.221,1.713,-4.076,-3.005
-5.667,-5.759,1.815,1.708,-3.277,-1.493
-6.276,-13.389,2.797,1.47,-2.981,-1.088
-6.944,-14.875,2.906,1.225,-1.114,-0.524
-4.138,-14.795,1.681,1.132,0.908,-0.05
-2.399,-13.63,1.578,0.959,0.852,0.056
-3.153,-11.109,1.055,0.667,0.828,-0.01
-3.425,-9.702,1.013,0.411,0.707,-0.045
-3.799,-8.92,1.067,0.248,0.468,-0.057
-3.9,-8.766,1.063,0.092,0.178,-0.098
-4.029,-9.424,0.913,-0.12,0.153,-0.263
-4.248,-10.912,0.32,-0.468,0.108,-0.638
-4.02,-12.827,-0.455,-0.967,0.469,-1.146
-2.458,-15.01,-0.232,-1.461,0.889,-1.606
-0.342,-17.496,0.87,-1.982,1.296,-1.784
0.543,-18.103,1.267,-2.288,1.483,-1.257
1.406,-15.314,1.46,-2.586,2.552,0.447
6.458,-1.709,1.155,-3.852,3.944,2.716
1.825,4.836,1.212,-2.365,1.777,2.671
1.118,10.914,-1.699,-1.393,1.674,1.747
1.453,17.753,-2.806,-0.211,0.984,0.953
1.531,16.145,-2.447,0.608,-1.911,-1.012
-7.872,4.256,-1.803,2.523,-4.782,-3.111
-5.739,-2.162,-2.867,1.825,-3.024,-2.833
-7.062,-7.71,-1.209,1.662,-2.935,-1.767
-8.006,-13.916,-0.879,1.088,-2.252,-1.525
-7.759,-13.731,-0.926,0.951,0.108,-0.993
-2.744,-13.43,-0.968,0.867,1.372,-0.689
-1.411,-11.736,-0.418,0.662,1.495,-0.403
-1.285,-9.973,-0.518,0.467,1.129,-0.262
-1.149,-9.404,-0.065,0.253,0.898,-0.03
-1.517,-9.221,-0.324,0.094,0.183,0.063
-2.123,-9.411,-0.468,-0.044,-0.049,0.04
-2.254,-9.838,-1.072,-0.189,-0.262,-0.164
-1.994,-11.461,-1.839,-0.448,-0.201,-0.472
-0.422,-13.707,-2.352,-0.775,0.411,-0.753
2.213,-17.241,-1.75,-1.237,0.574,-0.95
3.39,-19.289,-1.686,-1.752,0.71,-0.686
4.352,-18.615,-0.038,-2.274,1.809,0.747
6.481,-7.806,0.503,-3.802,3.482,2.754
4.456,1.31,3.032,-2.985,2.348,3.354
3.796,7.872,0.489,-2.215,1.546,2.313
0.766,15.718,-1.248,-0.94,1.309,1.241
1.435,16.881,-3.904,-0.015,-0.725,-0.474
-3.099,7.547,-3.814,2.138,-4.218,-2.66
-4.788,-0.027,-6.25,1.976,-4.049,-3.206
-7.008,-4.746,-4.389,2.13,-3.297,-2.167
-4.336,-11.774,-2.334,1.653,-3.14,-1.384
-5.567,-13.539,-0.974,1.463,-1.751,-0.988
-2.648,-13.25,-1.161,1.152,0.16,-0.555
-0.682,-12.669,-0.831,0.941,0.502,-0.302
-0.948,-11.308,-0.618,0.593,0.514,-0.059
-1.932,-10.229,-0.684,0.37,0.477,0.009
-2.393,-9.883,-0.415,0.175,0.093,0.016
-3.132,-10.653,-0.089,-0.078,-0.152,-0.093
-3.069,-11.637,-0.462,-0.469,-0.105,-0.381
-2.213,-12.715,-1.277,-0.998,0.092,-0.694
-0.784,-14.241,-1.795,-1.527,0.649,-0.927
0.761,-16.269,-1.626,-2.074,1.15,-1.022
1.554,-17.193,-1.896,-2.419,1.94,-0.757
2.334,-16.429,-0.103,-2.851,3.273,0.305
3.341,-10.878,1.109,-4.139,4.797,1.893
5.754,2.55,1.342,-3.468,3.816,2.572
5.322,5.133,-0.938,-2.886,1.577,2.224
1.54,13.222,-2.98,-2.264,1.317,0.812
3.916,17.028,-6.128,-1.257,-0.169,-0.235
2.583,13.605,-7.445,0.688,-3.662,-2.143
-4.587,1.713,-8.623,0.814,-4.289,-2.752
-6.264,0.541,-6.878,1.353,-2.412,-2.392
-3.157,-7.227,-4.836,1.679,-3.208,-1.214
-7.204,-11.514,-3.689,1.677,-3.049,-1.177
-6.937,-12.393,-3.362,1.683,-0.797,-0.656
-3.028,-12.343,-2.52,1.538,0.405,-0.499
-2.631,-11.706,-2.622,1.108,0.522,-0.341
-2.543,-10.576,-2.379,0.733,0.957,-0.212
-1.628,-9.761,-1.75,0.472,0.897,-0.029
-2.07,-9.544,-1.607,0.233,0.281,-0.036
-2.189,-9.966,-1.594,0.034,0.169,-0.164
-1.864,-10.855,-1.956,-0.161,0.001,-0.47
-0.778,-12.787,-2.464,-0.466,0.135,-0.869
1.081,-16.299,-2.298,-0.913,0.478,-1.305
2.674,-19.053,-1.897,-1.34,0.703,-1.513
3.241,-19.288,-0.515,-1.725,1.49,-0.74
3.655,-15.324,0.572,-2.722,3.156,1.268
10.311,3.551,1.535,-3.309,2.412,2.464
6.095,8.126,-0.433,-2.829,0.346,2.389
3.503,16.59,-2.221,-2.158,1.373,1.553
5.748,20.373,-4.872,-1.364,-0.03,0.748
3.482,18.513,-5.513,0.005,-3.522,-1.447
-8.187,2.274,-6.77,0.953,-3.879,-2.477
-7.023,-0.047,-4.742,1.182,-2.085,-2.078
-6.208,-7.06,-3.059,1.28,-3.572,-0.937
-9.77,-11.204,-1.24,1.226,-2.794,-0.693
-7.718,-12.746,-0.724,1.206,-0.812,-0.234
-3.821,-13.609,-0.051,1.213,0.241,-0.09
-2.716,-12.518,-0.558,1.031,0.269,-0.046
-2.69,-11.462,-0.646,0.768,0.702,-0.08
-2.52,-10.577,-0.719,0.441,0.531,-0.179
-3.15,-10.461,-0.884,0.064,0.244,-0.274
-3.518,-10.725,-0.95,-0.316,-0.009,-0.433
-3.38,-11.609,-0.944,-0.769,0.024,-0.672
-2.341,-12.975,-1.36,-1.241,0.277,-1.019
-0.77,-14.937,-1.19,-1.657,0.684,-1.327
0.216,-16.661,-1.842,-1.855,1.128,-1.398
0.963,-17.303,-0.718,-1.925,2.181,-0.688
2.032,-13.932,-0.615,-2.546,3.818,1.05
8.668,5.005,2.699,-3.513,3.396,2.456
6.062,8.171,0.486,-2.98,1.287,2.545
3.892,17.881,-1.702,-2.241,1.072,1.178
5.296,22.587,-4.149,-1.41,-0.341,0.464
2.937,20.147,-4.761,-0.071,-3.833,-1.532
-7.231,2.805,-7.648,1.478,-4.304,-2.843
-6.346,0.504,-5.49,1.689,-2.84,-2.564
-5.484,-8.375,-2.349,1.575,-3.116,-0.983
-7.655,-12.751,-0.8,1.331,-2.548,-0.78
-6.305,-13.094,0.156,1.17,-0.591,-0.291
-3.379,-13.431,0.199,1.171,0.096,-0.077
-2.902,-12.241,-0.157,1.002,0.422,-0.099
-2.311,-11.11,-0.429,0.766,0.566,-0.12
-2.212,-10.49,-0.316,0.438,0.425,-0.134
-2.686,-10.429,-0.475,0.091,0.11,-0.167
-2.859,-10.82,-0.495,-0.341,-0.069,-0.266
-3.02,-11.682,-0.941,-0.825,-0.147,-0.513
-2.876,-12.898,-1.525,-1.306,0.314,-0.852
-1.156,-15.111,-1.785,-1.753,1.022,-1.173
-0.037,-16.817,-1.678,-2.027,1.436,-1.202
0.545,-16.697,-1.085,-2.16,2.244,-0.537
1.23,-13.543,-0.155,-2.542,3.669,0.882
5.97,-1.696,-0.31,-3.859,4.23,2.685
3.925,6.409,1.008,-2.748,1.786,3.098
2.727,11.602,-0.87,-1.889,0.349,1.928
1.274,18.322,-2.61,-0.961,-0.486,0.883
2.175,17.402,-3.092,0.096,-3.401,-1.009
-5.414,5.367,-1.678,1.942,-6.214,-3.042
-6.275,-1.51,-3.055,1.499,-4.448,-3.162
-5.65,-6.869,-1.431,1.397,-2.964,-1.825
-4.058,-14.179,-1.042,1.124,-3.089,-1.244
-5.597,-16.063,-1.112,0.989,-1.271,-0.41
-2.678,-14.452,-1.768,1.0,0.7,0.233
-1.823,-13.263,-1.351,0.896,0.676,0.316
-2.529,-11.102,-1.046,0.629,0.386,0.284
-3.512,-10.255,-0.109,0.404,0.574,0.206
-3.658,-9.905,0.099,0.177,0.298,0.027
-4.008,-10.493,-0.185,-0.086,0.204,-0.197
-3.344,-11.512,-0.755,-0.389,0.428,-0.436
-2.44,-13.203,-1.223,-0.789,0.838,-0.767
0.307,-16.779,-0.769,-1.246,1.496,-1.0
2.127,-19.067,-0.883,-1.574,1.756,-0.789
2.107,-17.807,-0.473,-1.803,2.379,0.492
4.088,-5.277,-0.466,-3.306,3.491,2.442
2.236,2.634,0.193,-2.414,1.999,2.862
0.147,9.294,-2.443,-1.816,1.263,2.178
-1.766,18.564,-2.813,-0.905,0.806,1.183
-0.141,19.716,-4.114,-0.132,-1.299,-0.588
-4.873,8.258,-2.413,1.853,-4.377,-3.101
-4.909,1.185,-2.59,1.395,-3.709,-3.505
-5.12,-3.516,-0.804,1.502,-3.783,-2.723
-4.303,-11.568,-0.667,1.313,-3.468,-1.856
-4.802,-14.249,1.001,1.221,-1.43,-1.05
-2.294,-14.633,0.374,1.156,0.37,-0.151
-0.921,-13.907,0.733,1.163,0.835,0.231
-1.476,-12.229,1.357,0.949,1.01,0.413
-1.851,-11.249,2.194,0.613,0.958,0.419
-3.132,-10.997,2.108,0.205,0.379,0.226
-3.153,-11.471,1.664,-0.25,0.526,0.017
-3.157,-12.53,1.177,-0.804,0.702,-0.26
-2.22,-14.132,0.508,-1.431,1.17,-0.558
-0.917,-16.504,0.175,-2.013,1.787,-0.853
0.365,-17.349,-0.295,-2.285,2.55,-0.687
0.957,-15.945,-0.666,-2.553,3.601,0.336
3.537,-9.152,-0.552,-3.848,5.053,2.08
4.276,0.824,1.885,-3.172,3.077,2.69
2.127,4.17,-0.359,-2.596,0.629,2.115
-2.622,12.723,-1.836,-2.129,-0.021,0.966
-1.402,14.938,-2.625,-1.324,-1.745,-0.366
-5.566,9.027,-2.004,0.55,-5.238,-2.57
-9.535,0.136,-3.45,0.507,-4.336,-3.233
-8.863,-1.224,-0.864,0.73,-2.688,-2.618
-4.614,-9.651,0.92,0.928,-2.691,-1.654
-6.036,-13.18,2.006,0.959,-1.735,-1.207
-4.185,-13.218,1.55,1.058,0.241,-0.456
-1.617,-12.687,1.299,1.137,0.969,0.007
-2.134,-12.158,1.406,0.961,1.096,0.303
-2.97,-11.167,1.583,0.625,0.955,0.331
-3.768,-10.731,1.812,0.175,0.527,0.195
-4.593,-10.815,1.693,-0.318,0.504,-0.044
-4.494,-11.673,1.603,-0.847,0.72,-0.43
-3.65,-13.148,0.878,-1.37,0.953,-0.88
-2.307,-14.847,0.489,-1.852,1.401,-1.289
-0.422,-17.139,-0.215,-2.121,1.868,-1.394
1.0,-17.303,0.223,-2.255,2.694,-0.48
2.566,-11.776,-0.801,-3.089,4.089,1.508
3.824,1.847,0.961,-2.808,2.308,2.408
1.546,4.379,-1.953,-2.291,0.903,2.525
-1.867,15.548,-3.124,-1.657,0.536,1.416
-1.495,18.809,-4.363,-0.868,-1.598,-0.147
-4.998,12.456,-2.889,0.42,-5.091,-2.612
-7.507,0.65,-4.025,0.675,-3.562,-3.417
-5.425,-1.704,-1.151,0.943,-2.836,-3.242
-2.196,-11.985,0.203,0.992,-2.807,-1.816
-3.059,-15.714,0.494,0.87,-1.016,-0.86
-0.143,-14.219,0.05,0.968,1.012,0.014
0.724,-14.695,-0.195,1.057,1.143,0.428
0.13,-13.13,0.053,0.913,1.465,0.619
-0.925,-11.738,0.402,0.675,1.291,0.515
-1.15,-11.108,0.852,0.331,0.608,0.394
-1.973,-11.538,0.475,-0.037,0.217,0.277
-1.818,-12.406,0.341,-0.604,0.136,0.121
-1.988,-13.65,-0.14,-1.292,0.165,-0.148
-1.515,-15.823,-0.629,-1.942,0.632,-0.463
-0.815,-17.715,-0.804,-2.354,1.239,-0.709
-0.255,-17.836,-0.478,-2.484,2.14,-0.212
0.164,-13.851,-0.369,-2.798,3.675,1.376
7.164,5.15,1.848,-3.224,3.414,3.03
5.424,8.625,0.378,-2.283,1.193,2.827
2.83,17.644,-1.155,-1.677,-0.022,1.277
3.118,22.259,-3.033,-0.946,-1.079,0.289
3.002,18.615,-2.956,-0.049,-4.42,-1.92
-6.522,0.519,-4.825,1.062,-5.93,-3.727
-6.553,-1.797,-3.492,1.134,-4.284,-3.315
-4.456,-10.054,-1.82,1.473,-3.565,-1.504
-5.652,-14.511,-0.116,1.434,-3.173,-0.956
-6.073,-14.069,0.178,1.493,-1.052,-0.194
-3.717,-13.372,0.484,1.509,0.589,0.211
-3.164,-12.025,1.202,1.215,0.807,0.301
-3.615,-10.548,1.581,0.788,0.748,0.263
-4.121,-10.208,1.882,0.4,0.722,0.188
-4.377,-10.285,1.669,0.011,0.376,0.016
-4.654,-11.23,1.216,-0.455,0.497,-0.22
-4.104,-12.599,0.953,-1.046,0.665,-0.551
-3.56,-13.949,0.38,-1.69,1.122,-1.005
-1.096,-16.115,-0.808,-2.225,1.532,-1.395
0.256,-17.865,-0.474,-2.318,2.307,-1.21
2.016,-16.88,0.475,-2.623,3.491,-0.125
4.895,-8.45,0.389,-3.86,4.882,1.934
5.775,2.791,1.111,-2.942,3.321,2.989
3.355,6.38,-0.531,-2.231,1.064,2.16
-0.045,16.39,-2.062,-2.006,0.275,1.253
-0.022,17.9,-2.867,-1.292,-2.641,-0.573
-5.813,10.24,-1.503,0.325,-6.063,-2.95
-8.699,-0.973,-2.051,0.093,-5.331,-3.776
-8.169,-3.963,-0.095,0.313,-3.318,-2.801
-5.518,-12.99,-0.047,0.742,-3.132,-2.154
-6.617,-15.362,0.134,1.061,-0.744,-1.172
-3.322,-14.726,-0.484,1.449,1.328,-0.486
-1.948,-13.425,0.065,1.555,1.811,-0.268
-1.888,-11.707,0.88,1.34,1.762,-0.027
-2.12,-10.614,2.143,1.016,1.6,0.102
-2.72,-10.421,2.133,0.601,0.884,0.033
-3.091,-11.134,1.713,0.144,0.61,-0.107
-2.977,-12.15,1.047,-0.395,0.619,-0.283
-2.374,-14.101,0.718,-1.041,0.778,-0.495
-1.083,-16.92,0.449,-1.751,1.208,-0.794
-0.341,-18.044,0.304,-2.087,1.49,-0.761
0.191,-17.033,0.777,-2.234,2.464,0.286
1.723,-11.691,0.403,-3.06,4.03,2.184
2.765,3.532,1.446,-2.569,2.697,2.681
1.158,6.733,-1.375,-2.015,1.696,2.715
-1.572,17.124,-2.442,-1.439,1.658,1.51
0.291,19.232,-4.02,-0.716,-0.488,-0.08
-3.117,14.08,-2.66,0.577,-3.981,-2.408
-7.169,0.793,-3.728,0.699,-3.659,-2.885
-7.481,-1.271,-0.932,1.228,-2.706,-2.571
-4.873,-11.216,0.375,1.446,-2.96,-1.266
-7.29,-14.58,1.77,1.381,-1.564,-0.536
-5.483,-13.777,1.333,1.515,0.443,0.088
-3.195,-13.562,1.837,1.544,1.085,0.293
-2.995,-11.691,2.228,1.171,0.76,0.278
-4.123,-10.556,2.262,0.77,0.686,0.13
-4.484,-9.918,2.126,0.406,0.527,-0.065
-5.094,-10.202,1.773,0.008,0.532,-0.291
-4.581,-11.197,1.567,-0.429,0.934,-0.584
-3.995,-12.625,1.092,-0.882,1.106,-0.969
-1.933,-15.078,1.26,-1.403,1.523,-1.297
-0.524,-17.427,1.601,-1.934,1.646,-1.412
0.72,-17.172,1.559,-2.316,1.812,-0.788
0.557,-13.612,1.204,-2.729,2.864,0.799
6.858,3.999,1.723,-4.095,3.211,2.914
4.459,9.855,2.074,-2.865,1.002,3.127
1.958,16.109,0.208,-2.07,-0.206,1.648
1.199,21.855,-0.789,-0.988,-0.945,0.83
1.562,18.692,-0.474,-0.01,-3.944,-0.923
-8.297,2.473,-0.691,1.858,-6.232,-3.085
-8.72,-2.161,-0.986,1.382,-4.329,-3.084
-7.052,-7.118,1.143,1.485,-2.921,-1.334
-6.895,-13.198,2.734,1.167,-2.645,-1.034
-7.576,-12.871,3.199,1.04,-0.907,-0.671
-4.324,-12.947,3.375,1.028,0.907,-0.343
-3.252,-11.662,3.123,0.816,0.749,-0.31
-3.919,-11.069,2.546,0.463,0.649,-0.503
-4.093,-11.689,2.243,0.036,0.961,-0.669
-3.584,-12.697,1.576,-0.504,1.205,-0.95
-2.392,-14.11,0.838,-1.05,1.444,-1.279
-0.224,-16.855,0.962,-1.513,2.114,-1.448
2.386,-18.676,1.315,-1.95,2.247,-1.303
4.438,-17.446,1.466,-2.391,2.612,-0.087
5.186,-10.126,1.522,-3.413,3.47,1.878
5.342,1.532,2.632,-2.715,2.034,2.786
2.392,5.489,-0.489,-2.266,0.639,2.308
-0.926,16.419,-1.772,-1.662,0.26,1.349
-0.879,17.606,-3.006,-0.771,-1.492,-0.175
-4.335,10.694,-2.481,0.796,-4.54,-2.163
-7.632,0.253,-3.183,0.746,-3.936,-2.684
-7.464,-2.412,-0.017,1.074,-3.287,-1.918
-6.652,-11.734,1.175,1.23,-3.214,-0.966
-8.704,-13.581,2.739,1.175,-1.809,-0.488
-6.356,-13.005,2.849,1.176,0.06,-0.285
-4.094,-12.731,3.005,1.072,0.703,-0.39
-2.984,-11.306,2.671,0.778,0.819,-0.464
-2.669,-10.665,2.568,0.519,0.818,-0.472
-2.849,-10.523,2.199,0.253,0.499,-0.444
-3.387,-10.813,1.723,-0.121,0.564,-0.383
-3.559,-11.585,1.634,-0.568,0.789,-0.463
-2.941,-12.57,1.397,-0.996,1.115,-0.73
-1.924,-13.896,1.266,-1.483,1.239,-1.068
-0.051,-15.144,1.077,-1.934,1.586,-1.263
0.983,-16.372,0.116,-2.061,1.823,-1.131
2.13,-16.22,0.537,-2.242,2.824,0.01
3.874,-10.928,0.582,-3.623,4.207,1.953
3.172,2.832,0.614,-2.752,2.84,2.451
1.876,5.95,-2.411,-1.948,2.237,1.93
-0.303,16.147,-2.204,-0.883,1.669,1.114
0.384,17.143,-3.627,0.053,-0.794,-0.3
-3.472,11.345,-3.45,2.001,-4.287,-2.187
-5.31,-2.483,-3.938,1.903,-3.845,-2.316
-5.999,-5.905,-1.124,1.976,-3.412,-1.591
-3.584,-15.219,-0.77,1.44,-3.101,-0.852
-5.766,-16.073,-0.271,1.06,-1.932,-0.465
-4.036,-14.457,-0.528,0.89,0.137,-0.239
-2.396,-12.95,-0.337,0.573,0.899,-0.291
-1.892,-11.182,-0.327,0.197,0.806,-0.268
-2.805,-10.634,-0.013,-0.082,0.687,-0.257
-2.52,-10.405,0.054,-0.324,0.522,-0.292
-2.931,-10.891,-0.324,-0.654,0.326,-0.41
-2.344,-11.466,-1.321,-1.005,0.627,-0.54
-0.75,-13.202,-2.121,-1.298,1.057,-0.648
1.353,-15.821,-2.324,-1.555,1.383,-0.743
2.705,-16.776,-2.206,-1.637,2.056,-0.199
3.882,-14.038,-2.181,-1.852,2.784,1.367
7.943,4.211,0.03,-3.248,2.856,3.265
4.719,8.579,-0.353,-2.432,0.618,2.803
-0.018,18.075,-2.426,-1.804,0.602,1.299
0.712,23.189,-3.316,-0.757,-0.503,0.549
-1.049,18.535,-1.763,0.144,-3.104,-1.459
-8.254,0.593,-3.176,2.021,-4.512,-3.481
-7.445,-3.095,-2.306,1.784,-2.294,-2.885
-3.675,-10.868,0.259,1.669,-2.12,-0.998
-5.639,-15.168,1.403,1.007,-1.553,-0.522
-5.146,-12.863,0.256,0.714,0.389,0.155
-2.569,-12.492,0.346,0.67,1.512,0.503
-2.235,-11.192,0.581,0.461,0.985,0.51
-3.451,-10.037,0.243,0.292,0.547,0.292
-3.998,-9.915,0.091,0.132,0.418,0.102
-3.968,-10.206,0.044,-0.095,0.282,-0.104
-4.294,-10.552,-0.206,-0.399,0.128,-0.401
-3.842,-11.303,-0.523,-0.709,0.459,-0.703
-3.046,-12.455,-0.937,-0.994,0.725,-1.076
-1.228,-14.974,-0.509,-1.263,1.198,-1.323
-0.107,-16.784,-0.141,-1.522,1.378,-1.309
1.053,-16.659,0.538,-1.931,2.077,-0.455
1.742,-12.393,0.684,-2.864,3.407,1.106
7.136,4.597,1.294,-3.342,2.708,2.374
4.712,8.678,-0.846,-2.765,0.524,2.088
1.604,18.406,-3.032,-2.061,0.664,0.804
2.698,21.644,-3.964,-0.834,-1.247,-0.324
-0.025,16.369,-2.565,0.553,-4.599,-2.149
-8.065,0.105,-2.425,1.565,-4.553,-3.18
-6.936,-3.534,-0.525,1.755,-2.046,-2.492
-3.826,-12.228,1.275,1.723,-2.348,-0.974
-6.161,-15.744,1.454,1.281,-0.974,-0.394
-4.371,-13.976,0.113,1.194,0.958,0.214
-2.737,-13.345,-0.256,0.998,1.27,0.394
-3.346,-10.795,-0.43,0.535,0.544,0.33
-4.64,-9.76,-0.29,0.184,0.469,0.193
-4.738,-9.295,-0.048,-0.047,0.284,0.044
-4.799,-9.482,0.03,-0.269,0.074,-0.159
-4.632,-10.035,-0.135,-0.506,0.181,-0.434
-4.138,-11.199,-0.492,-0.756,0.404,-0.772
-3.225,-12.668,-1.007,-1.03,0.897,-1.112
-1.221,-15.654,-0.926,-1.274,1.507,-1.312
0.941,-17.883,-0.803,-1.512,2.019,-1.078
3.0,-17.375,0.094,-2.042,2.837,0.353
6.287,-6.367,0.668,-3.51,4.078,2.402
2.423,-0.007,2.707,-2.057,1.837,2.098
0.735,7.352,0.794,-1.269,0.97,0.802
-0.307,14.87,-0.241,-0.118,0.222,0.429
-1.145,14.07,-1.211,0.957,-2.469,-1.384
-7.088,3.616,-2.118,2.961,-5.413,-3.4
-5.124,-2.431,-3.602,2.158,-3.686,-2.589
-5.559,-7.758,-1.744,1.992,-3.435,-0.919
-6.816,-13.606,-0.347,1.433,-3.142,-0.648
-7.853,-12.992,0.112,1.213,-1.182,-0.067
-5.234,-12.732,0.979,1.016,0.327,0.202
-3.94,-11.535,1.058,0.754,0.354,0.07
-3.927,-10.456,1.097,0.441,0.313,-0.038
-3.727,-9.948,0.873,0.125,0.27,-0.043
-4.13,-10.058,0.629,-0.139,0.06,-0.113
-4.334,-10.124,0.325,-0.403,0.041,-0.284
-4.404,-10.928,0.056,-0.737,0.264,-0.535
-3.541,-12.301,-0.283,-1.092,0.694,-0.825
-2.204,-14.283,-0.484,-1.433,1.315,-1.093
-0.225,-16.663,-0.144,-1.822,1.731,-1.148
0.853,-17.222,-0.219,-2.056,2.286,-0.489
1.791,-13.838,-0.007,-2.455,3.448,1.178
7.581,5.016,2.251,-3.446,2.961,3.151
4.62,8.791,0.848,-2.666,0.605,3.001
2.937,17.188,-1.356,-1.868,-0.528,1.48
2.568,21.797,-2.803,-0.697,-1.683,0.528
1.829,18.434,-3.12,0.296,-4.715,-1.444
-7.554,0.836,-4.961,1.9,-5.627,-3.46
-6.71,-2.341,-3.255,1.87,-3.692,-3.014
-6.225,-9.655,-0.645,1.816,-2.38,-1.185
-6.53,-13.652,0.863,1.203,-1.647,-0.671
-6.238,-13.203,1.134,0.988,0.325,-0.016
-3.153,-13.053,1.049,0.857,1.29,0.437
-2.727,-11.213,0.656,0.608,1.016,0.5
-3.448,-9.69,-0.014,0.415,0.481,0.365
-4.314,-9.613,0.069,0.286,0.268,0.302
-5.043,-9.681,0.12,0.109,-0.1,0.125
-5.407,-10.584,0.041,-0.251,0.047,-0.193
-4.719,-11.978,-0.276,-0.727,0.243,-0.624
-4.206,-14.16,-0.801,-1.223,0.558,-1.127
-1.701,-17.009,-0.268,-1.772,1.215,-1.577
-0.132,-18.022,-0.259,-2.158,1.543,-1.586
1.801,-16.576,-0.289,-2.52,2.461,-0.288
5.63,-4.514,-0.972,-3.874,3.243,1.816
4.048,4.259,2.76,-2.878,1.117,2.41
-1.52,9.812,0.592,-2.437,-0.27,1.568
-3.033,16.997,-0.173,-1.888,0.113,1.265
-2.967,15.81,-0.615,-0.892,-1.913,-0.27
-9.65,5.299,0.759,1.171,-4.396,-2.406
-10.016,-1.768,-1.851,1.017,-2.519,-2.748
-6.113,-5.574,1.44,1.506,-1.248,-1.405
-5.814,-11.864,2.811,1.577,-1.983,-1.022
-7.236,-11.987,3.986,1.239,-0.757,-0.508
-4.202,-12.837,4.019,0.937,0.918,-0.043
-2.224,-12.572,3.528,0.526,0.684,0.264
-2.622,-11.324,1.907,0.104,0.22,0.329
-2.943,-10.955,1.374,-0.113,0.139,0.384
-3.619,-10.359,0.871,-0.271,-0.119,0.307
-4.364,-10.205,0.712,-0.476,-0.228,0.141
-4.824,-10.551,0.425,-0.726,0.061,-0.124
-4.496,-11.922,0.147,-1.076,0.31,-0.532
-3.379,-14.963,0.143,-1.471,1.037,-1.055
-1.252,-18.019,0.168,-1.914,1.45,-1.714
0.252,-19.408,0.834,-2.121,2.46,-1.235
2.308,-15.537,0.783,-2.931,4.021,0.687
5.596,2.586,1.093,-2.919,2.776,1.572
3.037,7.101,-2.158,-2.329,1.497,1.249
1.115,19.011,-2.861,-1.569,1.621,1.0
2.411,20.474,-4.305,-0.777,-0.131,-0.05
-0.015,16.92,-4.53,0.535,-3.263,-1.832
-4.489,-1.02,-5.201,1.322,-3.105,-2.214
-4.476,-4.166,-2.192,1.516,-2.639,-1.261
-4.972,-14.1,-1.526,1.526,-2.958,-0.413
-7.242,-13.716,-0.804,1.239,-1.849,0.155
-6.381,-13.455,-0.483,1.109,-0.083,0.137
-5.125,-11.987,0.05,0.806,0.762,-0.085
-3.448,-10.225,0.198,0.589,1.167,-0.219
-2.852,-9.058,0.228,0.444,0.964,-0.161
-2.833,-9.209,0.302,0.377,0.619,-0.086
-2.812,-9.383,0.491,0.3,0.136,-0.126
-2.603,-10.461,0.528,0.14,-0.098,-0.303
-2.45,-11.443,-0.084,-0.167,-0.236,-0.597
-1.036,-13.067,-0.87,-0.542,0.098,-0.854
0.593,-16.226,-0.781,-0.927,0.436,-0.992
1.41,-18.835,-0.269,-1.561,0.881,-0.863
0.964,-18.31,1.087,-2.227,2.118,-0.102
1.677,-14.13,3.057,-3.253,3.823,1.347
5.616,-1.603,4.099,-4.354,4.358,2.7
5.06,7.273,4.359,-4.011,2.834,3.321
4.785,13.368,1.988,-3.042,1.342,2.183
5.19,20.57,-0.408,-1.908,-1.001,0.638
3.131,19.305,-0.839,-0.497,-4.493,-1.415
-5.464,7.929,-1.074,0.83,-7.056,-3.121
-8.248,1.471,-2.692,1.035,-5.391,-3.863
-8.083,-4.003,-1.921,0.985,-3.943,-2.772
-8.802,-12.562,-1.188,0.822,-2.553,-1.798
-7.156,-14.439,-1.849,0.798,-0.302,-0.931
-3.693,-13.83,-2.079,0.99,1.501,-0.372
-2.225,-13.099,-1.032,0.918,1.17,-0.132
-3.227,-10.967,0.081,0.716,0.988,-0.175
-2.95,-9.387,0.592,0.488,0.917,-0.239
-3.401,-9.644,0.132,0.283,0.474,-0.329
-3.548,-10.078,-0.359,0.043,0.406,-0.426
-3.077,-11.547,-1.17,-0.273,0.64,-0.56
-1.237,-15.239,-1.523,-0.632,1.326,-0.738
1.126,-19.093,-0.728,-1.172,1.637,-0.961
1.773,-19.794,-0.213,-1.669,1.94,-0.453
2.27,-16.333,1.323,-2.434,3.528,1.315
7.107,2.668,2.218,-3.121,3.726,2.898
6.36,6.779,0.68,-2.812,1.34,2.852
1.193,19.894,-1.554,-2.048,-0.192,1.405
2.142,23.333,-3.447,-1.131,-1.212,0.77
0.972,18.594,-3.563,0.013,-4.597,-1.373
-7.618,0.356,-4.165,1.054,-5.581,-2.889
-8.973,-2.268,-2.456,1.368,-3.157,-2.501
-5.19,-12.399,-0.69,1.411,-1.709,-0.615
-6.885,-15.325,0.938,1.225,-0.891,-0.375
-6.265,-13.518,-0.016,1.096,1.106,0.111
-2.568,-12.748,0.522,1.042,1.746,0.223
-2.607,-10.577,0.539,0.798,0.863,0.099
-3.36,-9.78,0.289,0.548,0.607,-0.053
-3.548,-9.412,0.214,0.313,0.346,-0.129
-3.385,-9.731,0.411,0.046,-0.054,-0.175
-3.968,-10.127,0.453,-0.264,-0.439,-0.321
-3.544,-10.94,0.222,-0.618,-0.476,-0.554
-3.376,-12.463,-0.32,-0.979,-0.357,-0.881
-1.734,-15.214,-0.489,-1.308,0.144,-1.161
-0.757,-17.658,-0.46,-1.544,0.463,-1.22
-0.291,-18.105,-0.202,-1.654,1.721,-0.331
0.554,-14.758,1.371,-2.58,3.547,1.588
4.377,3.161,1.536,-2.753,3.301,2.736
2.292,7.602,-0.459,-2.283,1.731,2.658
1.195,17.769,-1.903,-1.606,2.188,1.759
3.774,20.628,-3.588,-0.822,0.176,0.589
1.544,17.499,-4.899,0.563,-3.317,-1.4
-5.671,0.547,-4.923,1.294,-3.767,-2.155
-5.839,-2.018,-2.881,1.521,-2.182,-1.632
-5.651,-11.195,-1.078,1.488,-2.849,-0.475
-9.088,-13.812,0.318,1.211,-1.878,-0.082
-7.906,-13.342,0.051,1.089,-0.034,0.154
-4.817,-12.775,0.117,0.899,0.695,0.083
-4.152,-11.704,0.001,0.621,0.316,-0.059
-4.307,-9.999,-0.46,0.348,0.417,-0.209
-3.995,-9.246,-0.519,0.124,0.296,-0.234
-4.142,-8.968,-0.317,-0.013,0.212,-0.221
-4.283,-9.144,-0.344,-0.135,-0.07,-0.338
-4.065,-9.957,-0.74,-0.344,-0.12,-0.507
-3.718,-11.998,-1.87,-0.652,0.316,-0.727
-1.919,-15.745,-1.828,-1.093,1.273,-0.995
-0.227,-18.353,-0.899,-1.635,1.639,-1.15
0.166,-18.011,-0.059,-2.153,2.156,-0.58
0.503,-13.956,0.809,-2.929,3.875,0.988
5.668,4.248,2.555,-3.735,3.852,2.564
5.366,10.344,1.8,-3.024,1.205,2.904
1.528,20.116,-0.996,-2.007,-0.037,1.382
2.836,24.261,-3.571,-0.896,-1.245,0.618
1.582,20.0,-2.125,0.35,-4.699,-1.352
-6.762,2.978,-2.713,1.548,-5.977,-2.873
-8.417,-1.982,-2.379,1.71,-3.612,-2.949
-4.49,-10.66,-0.667,1.532,-2.487,-1.068
-6.241,-15.311,1.009,1.17,-1.618,-0.755
-5.095,-14.176,-0.829,0.952,0.527,-0.14
-2.116,-13.132,-0.83,0.921,1.369,0.074
-1.775,-10.557,-0.494,0.554,0.761,0.159
-3.584,-9.047,-0.459,0.319,0.459,0.039
-3.606,-8.816,-0.182,0.149,0.384,0.054
-4.337,-9.152,-0.218,-0.024,0.009,-0.003
-4.57,-9.632,-0.553,-0.229,-0.029,-0.113
-4.559,-10.351,-0.782,-0.475,0.136,-0.3
-4.056,-11.469,-1.18,-0.75,0.448,-0.581
-2.493,-14.218,-1.575,-1.082,1.085,-0.911
-0.308,-17.993,-0.835,-1.448,1.467,-1.28
0.819,-19.346,0.378,-1.743,1.964,-0.931
1.052,-15.729,0.735,-2.202,3.223,0.616
6.945,2.823,3.163,-3.594,3.384,2.629
5.254,8.461,2.124,-2.836,1.029,2.759
2.321,18.344,-0.586,-1.993,-0.036,1.424
2.649,23.665,-3.356,-1.145,-0.958,0.905
2.155,19.978,-3.059,-0.229,-4.14,-1.102
-6.965,1.996,-4.524,1.568,-5.605,-3.199
-7.63,-1.989,-3.386,1.559,-3.735,-3.157
-5.477,-9.888,-1.023,1.551,-2.642,-1.307
-6.628,-14.335,0.335,1.403,-2.216,-1.002
-5.99,-13.979,-0.097,1.3,-0.019,-0.311
-2.701,-13.592,-0.418,1.246,1.173,0.074
-1.915,-12.193,-0.249,0.922,1.1,0.234
-2.72,-10.314,-0.427,0.578,0.724,0.123
-2.961,-9.722,0.104,0.303,0.662,0.071
-3.329,-9.537,0.288,0.088,0.113,-0.005
-3.619,-9.445,0.148,-0.119,-0.134,-0.062
-3.52,-10.035,0.079,-0.35,-0.246,-0.113
-3.448,-11.314,-0.387,-0.681,-0.078,-0.209
-2.733,-13.817,-1.196,-1.037,0.387,-0.444
-1.583,-17.095,-1.272,-1.374,1.214,-0.677
-1.308,-19.21,-0.885,-1.581,1.924,-0.441
-0.768,-17.08,-0.362,-2.088,3.58,0.927
7.562,1.723,5.293,-3.538,3.509,2.777
5.596,4.824,4.831,-2.887,1.356,2.636
3.874,15.507,2.538,-1.977,0.208,1.126
5.902,20.6,1.068,-1.154,-0.604,0.789
5.773,17.767,0.264,-0.291,-3.945,-1.045
-4.879,0.434,-5.939,1.574,-4.897,-2.872
-4.639,-0.911,-4.936,1.581,-3.491,-2.406
-4.967,-9.22,-2.742,1.31,-3.348,-0.605
-8.254,-12.782,-1.481,1.036,-2.912,-0.484
-8.388,-11.734,-0.797,1.022,-0.758,0.016
-6.351,-11.931,0.21,1.039,0.238,0.088
-5.041,-11.028,0.28,0.88,0.783,0.029
-4.065,-10.055,0.361,0.727,1.131,0.002
-2.983,-9.571,0.301,0.495,0.917,0.013
-3.268,-9.724,0.113,0.223,0.412,-0.018
-3.154,-9.947,-0.055,-0.078,0.218,-0.129
-3.362,-10.734,-0.173,-0.453,-0.081,-0.367
-3.242,-11.781,-0.69,-0.876,0.018,-0.698
-2.67,-13.695,-1.142,-1.226,0.286,-1.087
-1.03,-16.382,-0.688,-1.568,0.732,-1.295
-0.864,-17.288,-0.862,-1.771,0.74,-0.99
-1.615,-14.864,-0.713,-1.827,2.106,0.275
1.859,-6.216,-0.748,-3.107,3.683,2.325
0.811,1.624,0.908,-2.087,1.884,2.564
-1.557,7.193,-1.357,-1.393,1.107,1.618
-2.047,14.915,-1.989,-0.545,1.008,0.886
0.329,13.815,-2.026,0.127,-1.583,-0.651
-5.946,5.642,-0.386,1.971,-5.075,-2.776
-7.338,-1.06,-1.471,1.734,-3.504,-2.658
-6.103,-5.474,1.013,1.926,-2.466,-1.223
-5.966,-13.121,2.168,1.737,-2.45,-0.572
-7.835,-14.451,2.733,1.524,-0.782,-0.04
-5.203,-14.068,1.892,1.323,1.077,0.301
-3.759,-13.047,1.727,0.875,1.23,0.271
-4.109,-11.166,1.19,0.394,0.677,-0.014
-4.239,-10.1,1.221,0.059,0.838,-0.159
-4.223,-9.313,1.019,-0.203,0.419,-0.29
-4.479,-9.301,0.963,-0.392,0.334,-0.376
-4.181,-9.909,0.744,-0.622,0.155,-0.497
-3.893,-11.598,-0.261,-0.977,0.224,-0.658
-1.425,-16.403,-0.568,-1.543,0.746,-0.906
0.567,-20.188,0.691,-2.228,0.831,-1.069
0.414,-19.309,0.614,-2.567,1.48,-0.439
1.23,-12.445,1.462,-3.79,3.178,1.462
5.227,-0.459,2.84,-3.771,2.115,2.43
0.769,7.388,0.243,-2.669,-0.245,1.745
-2.411,18.806,-2.785,-1.541,0.614,1.177
-0.066,20.224,-3.468,-0.415,-1.272,0.147
-2.024,11.268,-3.292,1.259,-4.765,-2.018
-8.868,-0.222,-4.241,1.737,-4.293,-2.814
-6.89,-4.669,-2.053,1.418,-1.944,-1.591
-5.2,-13.301,-0.083,1.255,-2.215,-0.496
-7.234,-15.353,0.423,0.781,-0.92,0.089
-6.191,-12.562,-0.462,0.748,1.209,0.537
-3.612,-11.045,-0.182,0.833,1.751,0.566
-3.47,-9.503,0.023,0.84,1.217,0.326
-3.849,-8.722,-0.417,0.811,0.679,0.092
-3.943,-8.844,-0.494,0.705,0.508,0.041
-4.123,-9.334,-0.548,0.472,0.111,0.01
-4.488,-9.956,-0.65,0.145,0.075,-0.079
-4.331,-10.657,-0.806,-0.234,0.034,-0.283
-3.888,-12.263,-1.067,-0.69,0.246,-0.658
-2.103,-16.255,-0.878,-1.196,0.595,-1.218
-0.419,-19.392,-0.469,-1.656,0.915,-1.604
1.057,-19.742,0.557,-2.04,1.641,-0.798
2.165,-12.528,0.641,-3.386,3.359,1.145
-4.691,-6.432,0.493,0.467,0.321,0.119
-0.96,-4.969,0.698,0.665,0.626,0.21
-1.988,-6.811,0.602,0.843,0.648,0.243
-2.949,-8.685,0.742,0.948,0.854,0.272
-4.136,-10.424,0.794,0.967,0.816,0.27
-4.19,-9.663,0.807,0.532,0.483,0.122
-4.752,-9.156,0.564,0.139,0.157,-0.01
-5.041,-9.235,0.695,-0.203,0.125,-0.144
-5.279,-9.831,0.56,-0.55,0.042,-0.368
-5.332,-11.112,0.269,-0.958,0.219,-0.712
-4.432,-13.203,-0.079,-1.487,0.622,-1.159
-2.222,-16.066,0.357,-2.106,0.83,-1.611
-1.341,-16.977,-0.145,-2.51,0.856,-1.593
-0.402,-16.011,-0.403,-2.514,1.84,-0.473
2.027,-10.822,0.37,-3.179,3.447,1.62
4.349,2.88,1.33,-2.755,1.889,2.36
2.766,6.737,-0.773,-1.968,1.107,2.317
0.7,17.337,-0.871,-1.107,1.031,1.297
2.313,18.199,-1.358,-0.642,-1.797,-0.263
-3.37,12.543,-0.365,0.548,-5.289,-2.354
-8.266,-0.488,-1.607,1.132,-3.958,-2.565
-8.024,-4.056,0.339,1.624,-2.655,-1.752
-6.331,-14.655,1.03,1.74,-2.643,-0.571
-8.877,-16.308,1.957,1.767,-0.68,0.075
-5.298,-14.312,0.485,1.808,1.275,0.392
-3.51,-13.003,1.064,1.485,1.177,0.28
-4.248,-10.657,1.008,0.965,0.585,-0.012
-4.75,-9.715,1.061,0.493,0.651,-0.151
-4.869,-9.509,0.879,0.084,0.436,-0.31
-5.324,-10.347,0.722,-0.352,0.36,-0.551
-5.247,-11.307,0.619,-0.858,0.489,-0.887
-4.578,-12.652,-0.126,-1.38,0.71,-1.307
-2.236,-15.9,0.091,-1.872,1.293,-1.62
-0.629,-17.713,-0.691,-2.23,1.267,-1.637
0.634,-17.55,0.158,-2.328,2.197,-0.412
3.25,-10.059,0.41,-3.478,3.75,1.712
4.379,0.098,3.257,-2.812,2.15,2.668
2.869,4.473,0.658,-2.186,0.517,1.91
-1.922,15.246,0.91,-1.423,-0.013,0.8
-1.04,16.59,-1.403,-0.935,-1.862,-0.565
-5.325,9.653,-0.558,0.784,-5.354,-2.731
-9.488,0.491,-2.845,0.907,-4.414,-3.351
-10.118,-1.918,-0.628,1.396,-2.847,-2.198
-6.227,-11.632,0.341,1.608,-1.996,-0.806
-7.76,-13.314,2.451,1.805,-0.864,-0.332
-6.236,-13.0,1.658,1.842,1.008,0.033
-3.496,-12.402,1.76,1.658,1.383,0.13
-3.694,-11.002,1.917,1.178,0.968,0.138
-4.289,-10.006,1.916,0.729,0.633,0.018
-4.944,-9.556,1.783,0.301,0.371,-0.131
-5.262,-9.818,1.869,-0.139,0.283,-0.269
-5.654,-10.79,1.92,-0.608,0.513,-0.541
-4.989,-12.258,1.869,-1.217,0.459,-0.965
-4.001,-14.593,1.323,-1.9,0.748,-1.437
-1.742,-16.88,1.055,-2.514,1.012,-1.785
0.271,-17.919,0.04,-2.614,1.557,-1.306
1.626,-16.211,1.264,-2.806,2.76,0.496
11.146,2.719,2.862,-4.025,3.707,2.637
9.359,6.419,2.909,-2.624,1.687,2.696
7.833,14.612,1.677,-1.726,-0.157,1.38
6.555,19.089,0.052,-1.024,-1.007,0.822
6.445,18.456,-1.578,-0.225,-4.239,-1.112
-7.648,0.76,-2.891,1.947,-6.918,-3.075
-7.601,-1.828,-2.159,1.767,-5.073,-2.459
-8.376,-9.046,-0.366,2.078,-3.308,-0.56
-9.137,-12.885,2.36,2.048,-2.958,-0.285
-10.215,-13.589,3.02,2.066,-0.758,0.051
-5.753,-13.531,2.82,1.84,0.985,0.126
-4.715,-12.303,2.144,1.407,1.009,-0.185
-4.151,-10.751,1.606,0.944,0.844,-0.403
-3.908,-10.161,1.449,0.522,0.714,-0.475
-4.291,-10.042,1.206,0.052,0.279,-0.522
-4.79,-10.416,1.012,-0.448,0.3,-0.586
-4.898,-11.198,0.861,-0.985,0.362,-0.757
-4.572,-12.52,0.464,-1.547,0.566,-1.073
-2.839,-14.221,0.455,-2.073,1.063,-1.443
-0.301,-16.022,0.673,-2.466,1.194,-1.621
1.233,-16.522,-0.081,-2.496,1.616,-0.95
2.09,-13.954,0.856,-2.679,2.899,0.935
10.622,4.87,1.546,-3.756,3.592,3.063
9.992,6.898,0.105,-2.874,1.395,3.103
4.381,17.611,-3.332,-2.077,0.869,1.653
6.176,21.694,-3.889,-1.302,-0.401,0.968
4.452,18.207,-3.289,-0.393,-3.616,-1.119
-6.876,0.492,-3.709,1.496,-5.161,-3.074
-7.814,-1.041,-2.882,1.716,-3.0,-2.739
-3.142,-11.09,0.251,1.956,-2.064,-0.785
-6.03,-15.078,1.406,1.906,-1.391,-0.454
-4.895,-13.68,0.276,1.869,0.569,0.154
-2.68,-13.647,0.357,1.719,1.148,0.438
-2.843,-12.29,0.943,1.269,0.847,0.529
-4.03,-10.883,1.099,0.806,0.316,0.31
-4.623,-10.024,1.422,0.326,0.375,0.137
-4.999,-9.919,1.313,-0.122,0.179,-0.108
-5.065,-10.28,1.177,-0.563,0.204,-0.392
-4.871,-11.299,0.575,-1.048,0.225,-0.763
-4.538,-12.784,-0.064,-1.533,0.503,-1.253
-2.765,-15.069,-0.127,-1.899,1.043,-1.687
-1.27,-17.037,-0.211,-2.055,1.24,-1.783
0.207,-16.981,0.184,-2.043,1.946,-0.831
2.263,-10.994,-0.055,-2.696,3.556,1.257
3.49,2.814,-0.025,-2.081,3.482,2.446
4.276,5.73,-2.712,-1.598,2.594,2.454
0.818,15.766,-4.003,-0.833,1.623,1.355
1.141,17.797,-5.917,-0.332,-0.339,0.434
-2.909,12.968,-3.768,0.929,-3.831,-1.822
-6.58,0.152,-3.025,1.051,-4.554,-2.652
-9.15,-1.662,-0.507,1.476,-4.213,-2.196
-6.744,-10.824,1.034,1.547,-3.108,-0.694
-8.378,-13.41,2.875,1.75,-1.838,-0.38
-6.688,-13.87,1.737,1.832,0.069,0.175
-4.633,-13.371,1.617,1.69,0.73,0.316
-4.623,-12.023,1.788,1.236,0.853,0.307
-5.122,-10.607,1.886,0.72,0.733,0.071
-5.33,-9.563,2.014,0.231,0.768,-0.159
-5.305,-9.448,2.111,-0.201,0.723,-0.38
-5.378,-10.023,2.048,-0.609,0.766,-0.648
-4.726,-11.688,1.549,-1.034,0.867,-1.013
-2.659,-16.82,2.094,-1.55,1.33,-1.526
-0.377,-20.074,1.878,-2.177,1.271,-1.903
0.834,-19.744,2.088,-2.514,2.02,-0.869
3.741,-8.453,1.225,-3.954,3.554,1.147
4.55,1.659,2.693,-3.316,2.821,2.14
3.853,8.887,-0.327,-2.563,1.465,1.686
0.361,18.438,-1.773,-1.282,1.106,1.514
1.202,19.149,-3.654,-0.383,-1.031,0.286
-4.545,8.635,-3.132,1.785,-4.524,-1.831
-7.192,-0.909,-3.768,1.938,-3.976,-2.479
-8.466,-4.514,-1.54,2.121,-3.435,-1.446
-6.557,-12.023,0.248,1.936,-2.749,-0.781
-7.322,-13.31,1.745,1.807,-1.177,-0.371
-4.07,-13.686,2.118,1.49,0.576,0.039
-2.709,-12.667,1.814,1.155,0.607,0.137
-3.039,-11.359,1.92,0.715,0.705,0.111
-3.608,-10.324,1.702,0.193,0.394,0.033
-4.78,-10.334,1.637,-0.334,0.08,-0.148
-4.861,-11.066,1.416,-0.855,0.221,-0.419
-4.279,-12.81,1.03,-1.39,0.259,-0.862
-2.3,-15.676,1.515,-1.946,0.533,-1.364
-1.156,-18.011,1.565,-2.483,0.251,-1.709
-0.438,-17.913,1.694,-2.558,1.075,-0.871
0.634,-12.088,1.292,-3.332,2.673,1.107
1.765,-0.287,2.843,-2.669,1.707,1.923
-0.795,5.594,-0.346,-1.873,0.87,1.18
-1.685,14.363,-1.717,-0.684,1.278,1.101
0.299,14.954,-2.682,0.099,-1.142,-0.085
-3.72,7.295,-1.113,1.442,-4.634,-2.164
-7.495,-4.75,-3.971,1.721,-3.066,-2.658
-4.672,-9.064,-0.686,1.991,-1.381,-1.227
-3.911,-15.808,0.735,1.73,-1.706,-0.783
-6.924,-15.744,1.043,1.45,0.204,-0.325
-3.593,-13.015,-0.246,1.408,2.074,0.028
-1.297,-11.305,1.475,1.023,1.475,0.107
-2.934,-10.386,0.808,0.533,0.405,-0.159
-3.624,-10.614,0.35,0.141,0.546,-0.284
-2.502,-12.091,0.304,-0.317,0.244,-0.453
-1.903,-13.94,-0.01,-0.877,0.328,-0.68
0.58,-17.503,0.053,-1.508,0.527,-0.915
1.145,-19.913,0.396,-2.026,0.625,-0.801
0.747,-18.674,1.206,-2.357,1.465,0.222
3.0,-11.509,1.565,-3.697,3.213,2.168
2.137,0.035,2.11,-2.958,2.539,2.562
1.262,5.805,-0.42,-2.29,1.823,2.037
-0.858,18.578,-0.701,-1.306,0.874,0.779
1.219,19.081,-1.672,-0.627,-1.479,-0.541
-4.214,12.358,-1.401,1.175,-4.971,-2.72
-6.513,1.084,-2.415,1.355,-3.756,-2.92
-6.98,-2.913,-0.239,1.784,-2.969,-1.948
-6.174,-14.188,-0.269,1.695,-2.049,-0.66
-8.196,-15.22,0.004,1.692,-0.277,-0.277
-5.584,-14.116,-0.211,1.641,1.569,0.079
-4.008,-11.977,0.566,1.29,0.895,0.048
-5.109,-9.739,0.748,0.845,0.559,-0.178
-4.879,-8.083,0.674,0.505,0.412,-0.229
-4.956,-7.816,0.673,0.261,0.152,-0.15
-5.366,-7.867,0.574,0.106,-0.044,-0.107
-5.387,-8.622,0.6,-0.096,-0.076,-0.191
-5.767,-9.835,0.22,-0.367,-0.019,-0.435
-5.463,-11.995,-0.441,-0.771,0.384,-0.777
-3.398,-16.103,0.188,-1.396,0.96,-1.231
-1.262,-19.95,0.72,-2.197,0.919,-1.77
-0.283,-21.019,1.594,-2.652,1.435,-1.305
2.274,-16.771,2.832,-3.418,3.104,0.702
5.759,-0.735,4.761,-3.076,1.904,1.918
3.676,4.348,1.575,-2.441,-0.424,1.013
-0.883,16.114,0.134,-1.539,-0.201,0.6
0.001,18.516,-0.666,-0.719,-1.829,-0.215
-5.248,13.702,-1.844,0.515,-5.322,-2.309
-10.276,-2.425,-3.72,1.167,-3.935,-3.114
-8.877,-6.056,-0.572,1.745,-1.559,-1.432
-5.701,-15.64,0.626,2.01,-1.583,-0.376
-7.271,-16.573,0.077,1.878,-0.415,0.036
-4.015,-14.766,0.054,1.736,1.62,0.382
-2.577,-12.655,0.594,1.25,1.125,0.296
-3.647,-10.207,0.176,0.717,0.466,-0.067
-4.212,-8.859,0.007,0.329,0.362,-0.202
-4.078,-9.099,0.518,0.042,0.053,-0.257
-4.584,-9.945,0.765,-0.334,-0.356,-0.469
-4.412,-11.241,0.534,-0.851,-0.433,-0.802
-4.342,-12.81,-0.137,-1.396,-0.341,-1.286
-2.494,-14.849,-0.54,-1.89,-0.051,-1.719
-0.559,-17.824,-0.78,-2.253,0.325,-1.732
1.486,-18.109,0.468,-2.561,1.321,-0.479
4.24,-10.05,0.282,-3.718,3.101,1.618
3.995,0.228,3.362,-2.798,1.814,2.58
1.371,4.765,1.718,-2.173,0.174,1.333
-1.863,14.378,0.853,-1.395,-0.007,0.888
-2.048,14.618,-0.809,-0.528,-2.089,-0.694
-7.317,7.312,-0.693,1.349,-5.398,-2.847
-8.166,-3.48,-4.209,1.383,-3.818,-3.257
-6.275,-7.618,-2.292,1.703,-1.828,-1.265
-3.856,-15.034,-0.82,1.715,-1.548,-0.511
-5.411,-14.359,-0.591,1.63,-0.301,0.084
-3.074,-13.819,-0.674,1.48,1.322,0.527
-2.352,-11.878,0.312,1.156,1.033,0.484
-3.608,-10.264,0.472,0.789,0.486,0.179
-4.705,-9.332,0.209,0.423,0.186,-0.067
-4.812,-9.466,0.314,0.063,0.069,-0.209
-4.794,-9.843,0.558,-0.3,0.004,-0.41
-4.52,-10.29,0.115,-0.671,-0.189,-0.661
-3.991,-11.861,-0.806,-1.108,-0.233,-0.906
-1.833,-16.347,-0.869,-1.661,0.242,-1.176
0.558,-19.266,-1.133,-2.114,0.628,-1.098
1.568,-19.132,0.63,-2.498,1.848,0.349
6.6,-1.099,2.28,-3.975,3.449,2.359
6.045,5.956,6.036,-3.055,2.892,3.142
6.023,13.255,4.953,-2.11,1.323,1.752
1.92,21.446,3.445,-0.903,0.694,1.095
3.481,21.788,0.756,-0.035,-1.478,-0.533
-3.729,4.279,-0.35,2.061,-4.7,-2.6
-5.386,-2.012,-3.379,1.896,-4.208,-3.008
-7.756,-6.261,-2.616,2.044,-2.843,-1.207
-5.898,-12.598,-0.963,1.755,-2.562,-0.495
-8.501,-13.356,0.103,1.686,-1.342,-0.171
-6.613,-13.259,-0.278,1.488,0.612,0.045
-4.368,-12.227,-0.208,1.252,0.759,-0.106
-4.352,-10.653,0.202,0.856,0.613,-0.22
-4.398,-9.235,0.536,0.506,0.58,-0.281
-4.374,-8.551,0.459,0.219,0.248,-0.272
-4.536,-8.577,0.543,-0.058,-0.059,-0.202
-5.194,-8.679,0.319,-0.344,-0.175,-0.192
-5.378,-9.794,-0.467,-0.723,-0.254,-0.268
-4.943,-12.985,-1.363,-1.232,0.189,-0.478
-3.233,-17.958,-1.394,-1.852,0.903,-0.932
-2.571,-20.52,-0.496,-2.158,1.723,-0.936
-0.746,-18.879,1.051,-2.873,3.493,0.617
5.162,-0.453,1.96,-3.452,4.266,2.208
5.801,3.745,2.201,-2.572,3.286,2.37
6.023,15.774,1.01,-1.299,0.895,1.191
6.246,20.306,-1.095,-0.536,0.052,1.212
7.547,18.627,-3.198,0.736,-2.994,-0.58
0.413,1.433,-3.091,2.071,-5.523,-2.168
-2.9,-0.562,-2.246,2.169,-5.564,-1.978
-5.677,-8.648,-0.622,2.035,-3.705,-0.329
-5.918,-11.403,1.094,2.015,-3.583,-0.344
-8.893,-11.93,2.281,1.892,-2.138,-0.088
-7.228,-12.503,2.25,1.623,-0.259,-0.012
-5.175,-11.854,2.186,1.278,0.387,-0.172
-4.469,-11.057,1.981,0.853,0.452,-0.226
-4.734,-10.532,1.852,0.455,0.535,-0.298
-4.606,-10.38,1.587,0.022,0.469,-0.394
-4.514,-10.607,1.376,-0.444,0.426,-0.538
-4.216,-11.414,0.978,-0.955,0.479,-0.765
-3.472,-12.742,0.411,-1.503,0.563,-1.086
-2.131,-15.048,0.375,-1.904,0.941,-1.418
-0.227,-16.967,0.124,-2.084,1.16,-1.405
0.769,-16.662,0.742,-2.249,1.72,-0.217
2.105,-8.363,-1.16,-3.545,3.417,1.795
0.383,-0.862,1.735,-2.125,1.778,1.952
-1.043,6.072,-0.48,-1.534,0.987,0.764
-1.836,13.459,-1.023,-0.325,-0.242,0.391
-3.244,11.776,-0.984,0.374,-2.638,-0.924
-8.071,4.185,1.012,2.565,-5.039,-2.702
-7.343,-3.543,-1.335,2.319,-2.915,-2.157
-7.24,-9.575,1.49,2.714,-2.479,-0.277
-9.158,-15.263,2.412,2.194,-1.477,0.238
-9.202,-13.585,1.741,2.117,0.534,0.466
-6.133,-13.086,1.81,1.706,1.353,0.362
-5.771,-11.255,1.625,1.047,0.782,-0.085
-6.022,-9.552,0.789,0.469,0.771,-0.464
-5.509,-9.171,0.583,-0.02,0.741,-0.651
-5.534,-9.387,0.364,-0.467,0.556,-0.892
-4.931,-10.972,-0.206,-0.934,0.615,-1.202
-3.209,-13.533,-0.636,-1.416,0.796,-1.548
-1.197,-18.246,0.139,-2.062,0.547,-1.873
-0.64,-19.326,0.092,-2.502,1.004,-1.374
0.157,-16.156,1.427,-3.011,2.67,0.605
6.776,2.642,2.596,-3.532,3.933,2.797
7.112,7.248,3.764,-2.559,2.054,3.395
4.488,18.214,1.596,-1.348,0.561,2.096
6.248,22.874,-0.371,-0.249,-0.946,1.698
5.46,19.631,-0.71,0.983,-4.439,-0.679
-4.416,1.573,-1.883,2.25,-6.9,-2.825
-6.555,-2.478,-2.729,2.298,-4.731,-3.059
-4.259,-10.598,-0.953,2.193,-2.764,-1.186
-6.153,-14.71,0.895,1.94,-1.862,-1.073
-5.47,-14.477,0.024,1.65,0.251,-0.288
-2.525,-14.139,0.632,1.424,1.304,0.124
-2.124,-12.424,0.861,0.967,0.629,0.189
-3.503,-10.923,0.525,0.556,0.309,-0.01
-3.499,-10.546,0.517,0.189,0.295,-0.183
-3.634,-10.995,0.34,-0.214,-0.083,-0.434
-3.492,-11.968,0.017,-0.715,-0.201,-0.696
-2.79,-13.77,-0.534,-1.3,0.104,-0.962
-0.598,-16.874,0.112,-1.967,0.516,-1.101
0.931,-18.501,-0.756,-2.483,1.11,-0.638
1.571,-17.253,0.105,-2.924,2.348,0.926
7.989,1.439,2.547,-4.305,3.545,2.922
5.919,6.556,3.023,-3.003,2.184,2.909
5.692,15.163,1.085,-1.84,0.845,1.477
5.362,21.752,-0.417,-0.483,-0.366,0.711
5.262,20.797,-0.324,0.509,-3.34,-1.453
-5.233,2.885,-3.158,2.51,-5.464,-3.583
-4.017,-1.331,-3.927,2.169,-3.664,-3.235
-4.678,-8.158,-2.392,2.14,-2.533,-1.294
-5.884,-13.738,-0.25,1.8,-1.941,-0.671
-6.525,-13.799,-1.013,1.743,0.016,0.246
-2.699,-13.438,-0.61,1.638,0.968,0.675
-2.834,-12.455,0.043,1.26,0.329,0.662
-4.441,-10.94,-0.464,0.842,0.106,0.336
-4.612,-10.193,-0.243,0.42,0.342,0.059
-4.784,-10.109,-0.455,0.029,0.148,-0.256
-4.684,-10.754,-0.832,-0.411,0.228,-0.52
-4.59,-11.913,-2.211,-1.033,0.326,-0.733
-3.473,-14.495,-3.217,-1.848,0.814,-0.94
-1.395,-18.251,-2.213,-2.536,1.236,-1.16
-0.535,-19.746,-1.269,-2.916,1.518,-1.007
0.23,-17.365,0.171,-3.047,2.151,0.355
2.08,1.323,2.323,-3.592,3.16,2.289
4.885,8.066,5.185,-2.213,2.137,3.06
2.414,16.266,3.535,-1.029,-0.12,1.631
1.467,21.8,0.866,-0.336,-0.379,1.696
2.629,20.499,0.205,0.422,-2.766,0.069
-3.353,2.621,-0.095,1.919,-5.698,-2.12
-8.106,-2.814,-1.88,1.873,-4.845,-2.754
-6.853,-9.227,-0.36,1.983,-2.481,-0.892
-6.308,-13.898,1.327,2.142,-2.714,-0.912
-8.029,-14.735,1.169,1.977,-0.651,-0.353
-3.69,-14.44,0.802,1.673,1.191,0.105
-2.505,-13.077,1.036,1.16,0.87,0.218
-3.483,-10.905,0.288,0.582,0.221,0.076
-4.078,-9.927,0.573,0.162,0.343,0.001
-4.539,-9.707,0.529,-0.17,0.067,-0.173
-4.854,-10.296,0.18,-0.551,0.031,-0.375
-4.852,-11.633,-0.721,-0.979,0.313,-0.639
-3.439,-14.252,-0.857,-1.482,0.904,-0.949
-1.213,-17.787,-0.824,-2.031,1.368,-1.34
1.057,-19.432,0.178,-2.308,1.979,-0.561
2.601,-13.91,-0.016,-2.829,3.389,1.372
3.956,2.274,0.54,-2.275,3.438,2.778
5.422,4.721,-0.427,-1.987,3.515,2.562
1.664,18.402,-0.677,-0.943,2.23,1.424
2.297,21.906,-3.385,-0.262,0.749,0.54
0.797,17.822,-3.303,0.784,-2.468,-1.645
-4.103,2.003,-3.816,0.903,-3.811,-2.984
-7.542,0.744,-3.403,1.465,-4.341,-2.275
-6.469,-10.254,-3.324,1.388,-3.169,-0.57
-8.988,-12.216,-1.445,1.412,-2.054,-0.285
-8.974,-13.11,-0.813,1.411,-0.012,0.15
-5.271,-12.059,-0.27,1.382,1.132,0.316
-4.524,-10.703,0.26,1.25,1.159,0.121
-4.137,-9.948,0.297,1.026,0.958,-0.084
-4.42,-9.803,0.082,0.717,0.697,-0.305
-4.334,-10.213,-0.486,0.299,0.437,-0.515
-4.567,-11.17,-0.684,-0.244,0.492,-0.786
-3.631,-12.279,-1.074,-0.864,0.549,-1.124
-2.384,-14.005,-1.036,-1.442,0.672,-1.504
-0.23,-16.47,-0.616,-1.93,0.844,-1.662
0.679,-17.077,-0.922,-2.064,0.942,-1.147
1.643,-14.577,0.443,-2.307,1.973,0.668
7.693,4.094,1.543,-3.515,2.438,2.79
6.765,7.848,1.238,-2.551,0.49,3.015
2.089,16.623,-0.415,-1.957,-0.896,1.566
2.399,21.362,-1.269,-1.437,-0.883,1.135
2.033,18.967,-1.745,-0.586,-3.819,-0.769
-8.407,1.155,-2.095,1.396,-5.616,-2.762
-9.421,-1.818,-1.647,1.527,-3.297,-2.455
-5.692,-9.485,0.568,1.915,-1.742,-0.37
-7.76,-14.252,2.399,2.031,-1.888,-0.131
-8.392,-13.845,1.966,1.915,0.206,0.248
-5.02,-13.754,1.731,1.688,1.459,0.401
-4.183,-12.517,1.513,1.114,1.041,0.224
-5.212,-11.013,0.587,0.632,0.673,-0.247
-4.498,-10.026,0.198,0.165,0.713,-0.522
-4.577,-10.059,-0.085,-0.273,0.323,-0.768
-4.382,-10.756,-0.549,-0.76,0.33,-0.99
-3.535,-12.827,-0.847,-1.265,0.464,-1.316
-1.036,-17.655,0.122,-1.835,0.689,-1.753
0.367,-20.145,0.282,-2.15,0.759,-1.718
1.308,-18.575,0.542,-2.275,2.028,-0.109
-3.055,-4.479,0.613,0.312,0.374,-0.092
-0.833,-3.66,0.397,0.438,0.377,-0.188
-1.866,-5.309,0.369,0.569,0.619,-0.212
-3.044,-7.095,0.572,0.636,0.538,-0.266
-4.235,-9.038,0.765,0.612,0.532,-0.358
-4.594,-9.712,0.497,0.209,0.069,-0.487
-4.775,-11.119,0.206,-0.257,0.087,-0.725
-3.914,-13.789,0.168,-0.785,0.274,-1.146
-1.005,-17.375,1.437,-1.45,0.477,-1.705
0.236,-19.279,1.734,-2.041,0.276,-1.793
1.207,-17.937,2.371,-2.439,1.485,-0.315
7.299,-0.501,3.163,-3.912,2.615,1.765
4.813,7.562,6.113,-3.066,0.439,1.913
-0.984,16.719,2.274,-2.543,0.108,1.013
-0.35,23.258,0.252,-1.514,0.113,0.709
-1.175,22.141,-0.553,-0.727,-2.751,-1.085
-10.52,5.883,-1.264,1.249,-4.537,-3.081
-9.121,-1.305,-4.429,1.224,-2.268,-2.471
-5.521,-8.579,-1.173,1.752,-1.521,-0.537
-7.092,-13.41,0.441,1.679,-1.264,0.19
-7.0,-13.259,0.753,1.714,0.761,0.845
-4.059,-13.116,0.995,1.746,1.377,1.068
-3.86,-11.699,1.268,1.437,0.868,0.667
-4.991,-10.22,0.24,0.948,0.368,0.115
-5.555,-10.455,-0.21,0.372,0.424,-0.336
-5.846,-11.864,-0.679,-0.336,0.455,-0.834
-4.759,-14.982,-0.3,-1.201,0.931,-1.434
-3.108,-18.835,0.329,-2.113,1.01,-2.157
-1.376,-20.877,1.083,-2.634,1.63,-1.905
0.937,-17.028,1.842,-3.252,3.131,0.05
6.63,2.026,1.814,-3.475,3.155,1.965
6.734,4.545,-0.204,-2.985,1.586,1.82
4.005,18.425,-3.167,-2.095,0.454,0.885
4.708,22.837,-5.409,-1.178,-0.663,0.608
3.42,19.651,-5.487,0.064,-4.021,-1.622
-5.745,0.228,-5.019,1.106,-5.251,-3.415
-6.921,-1.551,-3.47,1.729,-3.889,-2.589
-4.896,-12.953,-0.437,2.003,-2.451,-0.748
-6.69,-15.719,0.994,1.919,-1.803,-0.665
-6.725,-16.001,0.748,1.744,0.326,-0.225
-2.854,-14.22,0.782,1.493,1.224,-0.014
-2.298,-12.06,1.04,0.987,1.037,-0.1
-2.886,-10.875,0.41,0.47,0.597,-0.277
-2.65,-11.135,0.528,-0.099,0.231,-0.397
-2.667,-12.541,-0.125,-0.773,-0.336,-0.669
-1.27,-14.92,-0.385,-1.497,-0.13,-1.041
1.294,-18.984,0.249,-2.025,-0.171,-1.36
1.527,-20.415,1.134,-2.225,0.177,-0.727
2.884,-14.848,1.775,-2.872,2.1,1.21
4.2,-0.3,1.96,-2.209,2.407,2.74
3.24,2.664,-0.926,-1.746,1.584,2.115
-2.245,15.953,-2.075,-1.226,2.096,1.49
0.077,19.31,-4.657,-0.604,1.146,0.49
-3.304,14.327,-4.543,0.572,-2.347,-1.475
-8.5,0.617,-3.954,0.71,-2.612,-2.657
-9.262,-1.516,-0.473,1.359,-1.351,-1.396
-5.772,-11.997,0.667,1.818,-1.895,-0.232
-9.246,-13.918,2.353,1.912,-1.111,0.183
-7.297,-13.73,1.685,1.909,0.803,0.3
-4.278,-13.001,1.47,1.704,1.019,0.137
-4.521,-11.268,1.184,1.197,0.427,-0.2
-5.844,-9.924,0.571,0.634,0.457,-0.532
-5.623,-9.857,0.628,0.035,0.398,-0.737
-5.767,-10.566,0.525,-0.543,0.27,-0.994
-4.448,-12.769,0.206,-1.114,0.362,-1.297
-1.716,-16.715,0.754,-1.802,0.615,-1.79
0.384,-19.326,1.183,-2.346,0.713,-1.884
2.01,-18.392,2.241,-2.736,1.661,-0.487
7.709,-0.099,4.89,-4.139,2.254,1.62
6.371,7.682,8.262,-3.252,0.604,2.528
3.707,14.603,6.438,-2.6,-1.108,1.381
0.419,23.14,4.491,-1.591,-1.406,1.101
-0.457,22.662,3.772,-0.731,-3.614,-0.528
-9.527,3.908,1.326,1.3,-5.565,-2.629
-9.584,-3.335,-1.73,1.343,-3.397,-3.003
-8.426,-8.167,0.12,1.853,-1.694,-1.094
-6.73,-14.835,1.793,1.815,-1.407,-0.575
-7.309,-14.977,1.252,1.777,0.091,-0.174
-3.876,-13.585,1.294,1.646,1.566,0.122
-3.981,-11.825,1.42,1.26,0.969,-0.06
-4.873,-10.336,0.988,0.706,0.77,-0.324
-5.053,-10.354,0.625,0.152,0.715,-0.526
-4.585,-11.861,0.308,-0.477,0.552,-0.819
-3.443,-14.155,-0.011,-1.246,0.49,-1.222
-0.683,-16.515,0.632,-2.124,0.856,-1.574
1.631,-18.224,0.425,-2.588,0.886,-1.511
2.486,-16.919,1.824,-2.683,1.264,-0.229
5.706,0.328,-1.79,-3.995,2.643,1.88
2.729,7.951,0.672,-2.457,1.356,2.063
-0.479,17.048,-2.437,-1.644,-0.317,0.748
-1.829,22.674,-3.723,-0.79,-1.332,0.207
-3.087,19.829,-5.261,-0.367,-3.509,-1.317
-9.132,3.32,-2.757,1.714,-5.449,-3.193
-6.789,-4.13,-5.436,1.294,-3.457,-2.585
-5.552,-12.031,-3.018,1.713,-2.163,-0.646
-6.403,-16.079,-1.401,1.654,-1.09,0.04
-5.863,-13.72,-1.083,1.777,0.907,0.445
-3.398,-12.765,0.379,1.585,1.269,0.487
-4.159,-10.575,0.688,1.097,0.511,0.106
-4.839,-9.442,0.435,0.55,0.418,-0.133
-5.296,-8.942,-0.089,0.112,0.199,-0.335
-5.842,-9.059,-0.741,-0.336,0.001,-0.498
-5.507,-10.815,-1.574,-0.829,0.299,-0.704
-3.221,-16.595,-1.956,-1.279,0.744,-1.168
-0.037,-20.812,-0.138,-1.757,0.778,-1.405
0.946,-19.897,2.583,-2.143,1.438,-0.352
7.011,-2.263,3.419,-3.307,2.308,1.594
6.08,3.631,5.257,-2.171,1.185,2.124
4.506,14.684,4.449,-1.562,-0.453,0.893
2.074,23.108,1.177,-0.38,-0.878,0.763
2.118,21.22,-1.423,0.514,-3.067,-0.451
-6.561,3.56,-1.25,2.408,-5.06,-2.227
-7.003,-2.159,-1.457,2.209,-4.032,-2.196
-8.061,-8.857,1.181,2.564,-2.626,-0.206
-9.043,-13.345,3.299,2.372,-2.305,0.24
-9.804,-12.866,4.078,2.359,-0.403,0.495
-6.958,-12.589,4.0,2.101,0.678,0.39
-5.948,-11.196,3.581,1.616,0.568,-0.019
-5.767,-10.179,2.555,1.025,0.491,-0.41
-5.699,-10.158,2.341,0.348,0.559,-0.688
-5.745,-10.184,1.554,-0.351,0.426,-0.994
-5.554,-11.282,1.287,-1.069,0.547,-1.36
-4.763,-12.707,0.714,-1.767,0.695,-1.824
-2.237,-15.283,0.944,-2.344,0.844,-2.223
0.963,-18.249,0.992,-2.74,1.06,-2.097
2.213,-17.575,2.6,-2.993,1.366,-0.555
6.53,0.906,4.204,-4.263,2.52,1.691
6.701,5.863,7.716,-3.169,0.896,2.713
3.937,13.888,6.437,-2.56,-1.175,1.514
-0.306,21.386,4.964,-1.555,-2.633,0.8
-2.46,21.218,3.721,-0.803,-4.577,-0.946
-8.98,2.729,2.491,1.282,-6.65,-3.121
-9.816,-3.048,-0.212,1.51,-4.421,-3.425
-7.91,-9.832,1.789,2.262,-1.856,-1.369
-5.365,-14.887,3.934,2.295,-0.26,-0.324
-4.432,-14.868,3.9,2.325,1.072,0.195
-2.527,-13.404,3.405,2.112,1.986,0.552
-2.554,-10.549,2.74,1.514,1.311,0.409
-3.769,-8.477,1.469,0.911,0.556,0.224
-4.677,-7.006,0.673,0.59,0.215,0.311
-5.156,-6.108,1.026,0.421,0.133,0.678
-5.881,-5.592,1.904,0.181,-0.081,1.095
-7.124,-5.051,3.02,-0.129,-0.374,1.367
-8.558,-4.463,3.856,-0.495,-0.496,1.395
-9.673,-4.017,4.493,-0.833,-0.546,1.155
-10.025,-3.751,4.604,-1.094,-0.382,0.79
-9.707,-3.478,4.482,-1.227,-0.282,0.421
